70BCSV 	
// AQ6370B OPTICAL SPECTRUM ANALYZER //                 
25
"CTRWL",1550.000000
"SPAN", 100.000000
"START WL",1500.000000
"STOP WL",1600.000000
"WLFREQ", 0
"REFL",-18.8
"LSCL", 5.0
"RESLN",0.200
"AVG",   1
"SMPLAUTO",      0
"SMPL",       5001
"SMPLINTVL",0.0200
"HIGH1"
"MEAS"
"LSUNT",0
"NMSKH","OFF"
"RESCOR",0
"RESPARM", 9417
"FREQPARM", 9417






"[TRACE DATA]"
1500.0000, -58.120
1500.0200, -58.122
1500.0400, -58.106
1500.0600, -58.097
1500.0800, -58.098
1500.1000, -58.090
1500.1200, -58.078
1500.1400, -58.078
1500.1600, -58.061
1500.1800, -58.062
1500.2000, -58.070
1500.2200, -58.047
1500.2400, -58.045
1500.2600, -58.040
1500.2800, -58.030
1500.3000, -58.026
1500.3200, -58.023
1500.3400, -58.017
1500.3600, -58.011
1500.3800, -58.008
1500.4000, -57.998
1500.4200, -58.000
1500.4400, -57.998
1500.4600, -57.988
1500.4800, -57.991
1500.5000, -57.974
1500.5200, -57.967
1500.5400, -57.956
1500.5600, -57.959
1500.5800, -57.956
1500.6000, -57.944
1500.6200, -57.941
1500.6400, -57.938
1500.6600, -57.944
1500.6800, -57.922
1500.7000, -57.923
1500.7200, -57.909
1500.7400, -57.901
1500.7600, -57.897
1500.7800, -57.890
1500.8000, -57.895
1500.8200, -57.888
1500.8400, -57.883
1500.8600, -57.862
1500.8800, -57.865
1500.9000, -57.861
1500.9200, -57.862
1500.9400, -57.856
1500.9600, -57.839
1500.9800, -57.830
1501.0000, -57.825
1501.0200, -57.826
1501.0400, -57.826
1501.0600, -57.813
1501.0800, -57.796
1501.1000, -57.798
1501.1200, -57.789
1501.1400, -57.782
1501.1600, -57.770
1501.1800, -57.778
1501.2000, -57.770
1501.2200, -57.763
1501.2400, -57.749
1501.2600, -57.747
1501.2800, -57.734
1501.3000, -57.739
1501.3200, -57.717
1501.3400, -57.719
1501.3600, -57.712
1501.3800, -57.717
1501.4000, -57.697
1501.4200, -57.697
1501.4400, -57.677
1501.4600, -57.692
1501.4800, -57.675
1501.5000, -57.666
1501.5200, -57.655
1501.5400, -57.660
1501.5600, -57.656
1501.5800, -57.648
1501.6000, -57.643
1501.6200, -57.633
1501.6400, -57.633
1501.6600, -57.622
1501.6800, -57.624
1501.7000, -57.611
1501.7200, -57.603
1501.7400, -57.590
1501.7600, -57.591
1501.7800, -57.586
1501.8000, -57.581
1501.8200, -57.571
1501.8400, -57.572
1501.8600, -57.570
1501.8800, -57.564
1501.9000, -57.552
1501.9200, -57.543
1501.9400, -57.539
1501.9600, -57.530
1501.9800, -57.518
1502.0000, -57.518
1502.0200, -57.510
1502.0400, -57.506
1502.0600, -57.489
1502.0800, -57.485
1502.1000, -57.476
1502.1200, -57.476
1502.1400, -57.470
1502.1600, -57.462
1502.1800, -57.459
1502.2000, -57.445
1502.2200, -57.425
1502.2400, -57.438
1502.2600, -57.432
1502.2800, -57.416
1502.3000, -57.409
1502.3200, -57.411
1502.3400, -57.399
1502.3600, -57.395
1502.3800, -57.384
1502.4000, -57.377
1502.4200, -57.374
1502.4400, -57.358
1502.4600, -57.364
1502.4800, -57.350
1502.5000, -57.351
1502.5200, -57.339
1502.5400, -57.331
1502.5600, -57.328
1502.5800, -57.318
1502.6000, -57.313
1502.6200, -57.305
1502.6400, -57.295
1502.6600, -57.295
1502.6800, -57.287
1502.7000, -57.273
1502.7200, -57.275
1502.7400, -57.264
1502.7600, -57.266
1502.7800, -57.258
1502.8000, -57.247
1502.8200, -57.241
1502.8400, -57.248
1502.8600, -57.227
1502.8800, -57.218
1502.9000, -57.209
1502.9200, -57.214
1502.9400, -57.191
1502.9600, -57.188
1502.9800, -57.184
1503.0000, -57.180
1503.0200, -57.170
1503.0400, -57.164
1503.0600, -57.155
1503.0800, -57.148
1503.1000, -57.146
1503.1200, -57.141
1503.1400, -57.126
1503.1600, -57.113
1503.1800, -57.112
1503.2000, -57.108
1503.2200, -57.097
1503.2400, -57.099
1503.2600, -57.087
1503.2800, -57.078
1503.3000, -57.071
1503.3200, -57.068
1503.3400, -57.049
1503.3600, -57.056
1503.3800, -57.051
1503.4000, -57.047
1503.4200, -57.030
1503.4400, -57.023
1503.4600, -57.016
1503.4800, -57.012
1503.5000, -57.001
1503.5200, -56.988
1503.5400, -56.987
1503.5600, -56.972
1503.5800, -56.978
1503.6000, -56.963
1503.6200, -56.960
1503.6400, -56.957
1503.6600, -56.944
1503.6800, -56.938
1503.7000, -56.931
1503.7200, -56.928
1503.7400, -56.914
1503.7600, -56.916
1503.7800, -56.905
1503.8000, -56.892
1503.8200, -56.899
1503.8400, -56.880
1503.8600, -56.884
1503.8800, -56.872
1503.9000, -56.863
1503.9200, -56.862
1503.9400, -56.853
1503.9600, -56.852
1503.9800, -56.839
1504.0000, -56.834
1504.0200, -56.820
1504.0400, -56.814
1504.0600, -56.809
1504.0800, -56.798
1504.1000, -56.797
1504.1200, -56.778
1504.1400, -56.779
1504.1600, -56.767
1504.1800, -56.747
1504.2000, -56.754
1504.2200, -56.749
1504.2400, -56.736
1504.2600, -56.726
1504.2800, -56.729
1504.3000, -56.709
1504.3200, -56.705
1504.3400, -56.703
1504.3600, -56.694
1504.3800, -56.686
1504.4000, -56.680
1504.4200, -56.678
1504.4400, -56.670
1504.4600, -56.657
1504.4800, -56.660
1504.5000, -56.644
1504.5200, -56.634
1504.5400, -56.622
1504.5600, -56.621
1504.5800, -56.618
1504.6000, -56.598
1504.6200, -56.598
1504.6400, -56.591
1504.6600, -56.581
1504.6800, -56.580
1504.7000, -56.572
1504.7200, -56.565
1504.7400, -56.556
1504.7600, -56.551
1504.7800, -56.547
1504.8000, -56.538
1504.8200, -56.532
1504.8400, -56.522
1504.8600, -56.516
1504.8800, -56.507
1504.9000, -56.495
1504.9200, -56.486
1504.9400, -56.490
1504.9600, -56.466
1504.9800, -56.468
1505.0000, -56.463
1505.0200, -56.458
1505.0400, -56.442
1505.0600, -56.434
1505.0800, -56.430
1505.1000, -56.425
1505.1200, -56.414
1505.1400, -56.408
1505.1600, -56.402
1505.1800, -56.391
1505.2000, -56.389
1505.2200, -56.373
1505.2400, -56.372
1505.2600, -56.361
1505.2800, -56.349
1505.3000, -56.345
1505.3200, -56.346
1505.3400, -56.323
1505.3600, -56.323
1505.3800, -56.310
1505.4000, -56.300
1505.4200, -56.305
1505.4400, -56.291
1505.4600, -56.280
1505.4800, -56.270
1505.5000, -56.265
1505.5200, -56.255
1505.5400, -56.247
1505.5600, -56.249
1505.5800, -56.229
1505.6000, -56.227
1505.6200, -56.215
1505.6400, -56.209
1505.6600, -56.199
1505.6800, -56.190
1505.7000, -56.186
1505.7200, -56.170
1505.7400, -56.161
1505.7600, -56.165
1505.7800, -56.145
1505.8000, -56.141
1505.8200, -56.133
1505.8400, -56.126
1505.8600, -56.109
1505.8800, -56.102
1505.9000, -56.102
1505.9200, -56.093
1505.9400, -56.088
1505.9600, -56.071
1505.9800, -56.066
1506.0000, -56.058
1506.0200, -56.043
1506.0400, -56.034
1506.0600, -56.042
1506.0800, -56.020
1506.1000, -56.013
1506.1200, -56.004
1506.1400, -55.992
1506.1600, -55.989
1506.1800, -55.983
1506.2000, -55.976
1506.2200, -55.967
1506.2400, -55.957
1506.2600, -55.960
1506.2800, -55.939
1506.3000, -55.939
1506.3200, -55.927
1506.3400, -55.921
1506.3600, -55.911
1506.3800, -55.903
1506.4000, -55.901
1506.4200, -55.889
1506.4400, -55.884
1506.4600, -55.867
1506.4800, -55.870
1506.5000, -55.850
1506.5200, -55.852
1506.5400, -55.850
1506.5600, -55.824
1506.5800, -55.826
1506.6000, -55.813
1506.6200, -55.807
1506.6400, -55.800
1506.6600, -55.785
1506.6800, -55.780
1506.7000, -55.773
1506.7200, -55.761
1506.7400, -55.758
1506.7600, -55.743
1506.7800, -55.739
1506.8000, -55.735
1506.8200, -55.728
1506.8400, -55.714
1506.8600, -55.703
1506.8800, -55.701
1506.9000, -55.683
1506.9200, -55.683
1506.9400, -55.670
1506.9600, -55.665
1506.9800, -55.656
1507.0000, -55.646
1507.0200, -55.646
1507.0400, -55.627
1507.0600, -55.624
1507.0800, -55.613
1507.1000, -55.607
1507.1200, -55.601
1507.1400, -55.587
1507.1600, -55.583
1507.1800, -55.575
1507.2000, -55.571
1507.2200, -55.549
1507.2400, -55.548
1507.2600, -55.545
1507.2800, -55.534
1507.3000, -55.527
1507.3200, -55.521
1507.3400, -55.510
1507.3600, -55.495
1507.3800, -55.488
1507.4000, -55.478
1507.4200, -55.472
1507.4400, -55.458
1507.4600, -55.454
1507.4800, -55.441
1507.5000, -55.436
1507.5200, -55.421
1507.5400, -55.412
1507.5600, -55.411
1507.5800, -55.396
1507.6000, -55.389
1507.6200, -55.376
1507.6400, -55.363
1507.6600, -55.362
1507.6800, -55.350
1507.7000, -55.343
1507.7200, -55.330
1507.7400, -55.319
1507.7600, -55.318
1507.7800, -55.306
1507.8000, -55.299
1507.8200, -55.280
1507.8400, -55.274
1507.8600, -55.269
1507.8800, -55.258
1507.9000, -55.250
1507.9200, -55.241
1507.9400, -55.227
1507.9600, -55.217
1507.9800, -55.212
1508.0000, -55.199
1508.0200, -55.192
1508.0400, -55.191
1508.0600, -55.179
1508.0800, -55.172
1508.1000, -55.155
1508.1200, -55.148
1508.1400, -55.144
1508.1600, -55.136
1508.1800, -55.123
1508.2000, -55.117
1508.2200, -55.103
1508.2400, -55.097
1508.2600, -55.094
1508.2800, -55.085
1508.3000, -55.072
1508.3200, -55.056
1508.3400, -55.057
1508.3600, -55.043
1508.3800, -55.041
1508.4000, -55.031
1508.4200, -55.021
1508.4400, -55.016
1508.4600, -55.001
1508.4800, -54.991
1508.5000, -54.983
1508.5200, -54.975
1508.5400, -54.963
1508.5600, -54.958
1508.5800, -54.953
1508.6000, -54.938
1508.6200, -54.932
1508.6400, -54.914
1508.6600, -54.905
1508.6800, -54.900
1508.7000, -54.892
1508.7200, -54.883
1508.7400, -54.877
1508.7600, -54.866
1508.7800, -54.852
1508.8000, -54.850
1508.8200, -54.846
1508.8400, -54.832
1508.8600, -54.823
1508.8800, -54.813
1508.9000, -54.815
1508.9200, -54.789
1508.9400, -54.791
1508.9600, -54.773
1508.9800, -54.769
1509.0000, -54.761
1509.0200, -54.753
1509.0400, -54.742
1509.0600, -54.735
1509.0800, -54.723
1509.1000, -54.716
1509.1200, -54.708
1509.1400, -54.698
1509.1600, -54.687
1509.1800, -54.674
1509.2000, -54.671
1509.2200, -54.655
1509.2400, -54.647
1509.2600, -54.642
1509.2800, -54.630
1509.3000, -54.617
1509.3200, -54.610
1509.3400, -54.598
1509.3600, -54.592
1509.3800, -54.584
1509.4000, -54.571
1509.4200, -54.568
1509.4400, -54.555
1509.4600, -54.543
1509.4800, -54.530
1509.5000, -54.520
1509.5200, -54.517
1509.5400, -54.508
1509.5600, -54.495
1509.5800, -54.490
1509.6000, -54.480
1509.6200, -54.465
1509.6400, -54.451
1509.6600, -54.447
1509.6800, -54.437
1509.7000, -54.427
1509.7200, -54.420
1509.7400, -54.408
1509.7600, -54.396
1509.7800, -54.394
1509.8000, -54.375
1509.8200, -54.373
1509.8400, -54.363
1509.8600, -54.349
1509.8800, -54.336
1509.9000, -54.331
1509.9200, -54.323
1509.9400, -54.312
1509.9600, -54.305
1509.9800, -54.292
1510.0000, -54.281
1510.0200, -54.271
1510.0400, -54.259
1510.0600, -54.249
1510.0800, -54.242
1510.1000, -54.234
1510.1200, -54.218
1510.1400, -54.206
1510.1600, -54.196
1510.1800, -54.186
1510.2000, -54.174
1510.2200, -54.167
1510.2400, -54.154
1510.2600, -54.142
1510.2800, -54.133
1510.3000, -54.124
1510.3200, -54.114
1510.3400, -54.100
1510.3600, -54.090
1510.3800, -54.078
1510.4000, -54.066
1510.4200, -54.056
1510.4400, -54.045
1510.4600, -54.036
1510.4800, -54.020
1510.5000, -54.011
1510.5200, -54.000
1510.5400, -53.988
1510.5600, -53.972
1510.5800, -53.965
1510.6000, -53.953
1510.6200, -53.939
1510.6400, -53.928
1510.6600, -53.912
1510.6800, -53.911
1510.7000, -53.898
1510.7200, -53.886
1510.7400, -53.870
1510.7600, -53.860
1510.7800, -53.850
1510.8000, -53.834
1510.8200, -53.824
1510.8400, -53.816
1510.8600, -53.809
1510.8800, -53.791
1510.9000, -53.782
1510.9200, -53.772
1510.9400, -53.755
1510.9600, -53.748
1510.9800, -53.740
1511.0000, -53.725
1511.0200, -53.713
1511.0400, -53.703
1511.0600, -53.694
1511.0800, -53.676
1511.1000, -53.669
1511.1200, -53.656
1511.1400, -53.643
1511.1600, -53.626
1511.1800, -53.619
1511.2000, -53.604
1511.2200, -53.598
1511.2400, -53.583
1511.2600, -53.575
1511.2800, -53.560
1511.3000, -53.555
1511.3200, -53.543
1511.3400, -53.529
1511.3600, -53.513
1511.3800, -53.503
1511.4000, -53.492
1511.4200, -53.484
1511.4400, -53.471
1511.4600, -53.458
1511.4800, -53.448
1511.5000, -53.434
1511.5200, -53.418
1511.5400, -53.407
1511.5600, -53.401
1511.5800, -53.386
1511.6000, -53.379
1511.6200, -53.357
1511.6400, -53.351
1511.6600, -53.336
1511.6800, -53.333
1511.7000, -53.315
1511.7200, -53.301
1511.7400, -53.288
1511.7600, -53.279
1511.7800, -53.269
1511.8000, -53.256
1511.8200, -53.249
1511.8400, -53.233
1511.8600, -53.221
1511.8800, -53.211
1511.9000, -53.203
1511.9200, -53.184
1511.9400, -53.176
1511.9600, -53.163
1511.9800, -53.149
1512.0000, -53.143
1512.0200, -53.128
1512.0400, -53.118
1512.0600, -53.107
1512.0800, -53.099
1512.1000, -53.078
1512.1200, -53.070
1512.1400, -53.057
1512.1600, -53.046
1512.1800, -53.036
1512.2000, -53.023
1512.2200, -53.017
1512.2400, -53.000
1512.2600, -52.990
1512.2800, -52.978
1512.3000, -52.964
1512.3200, -52.956
1512.3400, -52.947
1512.3600, -52.932
1512.3800, -52.920
1512.4000, -52.906
1512.4200, -52.890
1512.4400, -52.888
1512.4600, -52.873
1512.4800, -52.861
1512.5000, -52.851
1512.5200, -52.836
1512.5400, -52.818
1512.5600, -52.810
1512.5800, -52.797
1512.6000, -52.784
1512.6200, -52.773
1512.6400, -52.758
1512.6600, -52.748
1512.6800, -52.734
1512.7000, -52.723
1512.7200, -52.709
1512.7400, -52.702
1512.7600, -52.692
1512.7800, -52.678
1512.8000, -52.669
1512.8200, -52.652
1512.8400, -52.645
1512.8600, -52.632
1512.8800, -52.623
1512.9000, -52.613
1512.9200, -52.598
1512.9400, -52.588
1512.9600, -52.575
1512.9800, -52.565
1513.0000, -52.551
1513.0200, -52.535
1513.0400, -52.526
1513.0600, -52.518
1513.0800, -52.498
1513.1000, -52.487
1513.1200, -52.475
1513.1400, -52.464
1513.1600, -52.453
1513.1800, -52.443
1513.2000, -52.430
1513.2200, -52.418
1513.2400, -52.408
1513.2600, -52.390
1513.2800, -52.375
1513.3000, -52.364
1513.3200, -52.353
1513.3400, -52.339
1513.3600, -52.330
1513.3800, -52.318
1513.4000, -52.309
1513.4200, -52.291
1513.4400, -52.278
1513.4600, -52.265
1513.4800, -52.254
1513.5000, -52.238
1513.5200, -52.226
1513.5400, -52.216
1513.5600, -52.202
1513.5800, -52.186
1513.6000, -52.177
1513.6200, -52.162
1513.6400, -52.148
1513.6600, -52.135
1513.6800, -52.120
1513.7000, -52.108
1513.7200, -52.095
1513.7400, -52.083
1513.7600, -52.070
1513.7800, -52.057
1513.8000, -52.042
1513.8200, -52.034
1513.8400, -52.020
1513.8600, -52.008
1513.8800, -51.993
1513.9000, -51.982
1513.9200, -51.968
1513.9400, -51.956
1513.9600, -51.942
1513.9800, -51.929
1514.0000, -51.917
1514.0200, -51.905
1514.0400, -51.889
1514.0600, -51.874
1514.0800, -51.859
1514.1000, -51.848
1514.1200, -51.833
1514.1400, -51.822
1514.1600, -51.806
1514.1800, -51.795
1514.2000, -51.782
1514.2200, -51.770
1514.2400, -51.755
1514.2600, -51.740
1514.2800, -51.729
1514.3000, -51.716
1514.3200, -51.700
1514.3400, -51.687
1514.3600, -51.669
1514.3800, -51.661
1514.4000, -51.645
1514.4200, -51.630
1514.4400, -51.616
1514.4600, -51.604
1514.4800, -51.587
1514.5000, -51.575
1514.5200, -51.558
1514.5400, -51.546
1514.5600, -51.535
1514.5800, -51.520
1514.6000, -51.508
1514.6200, -51.497
1514.6400, -51.485
1514.6600, -51.468
1514.6800, -51.448
1514.7000, -51.436
1514.7200, -51.422
1514.7400, -51.407
1514.7600, -51.394
1514.7800, -51.378
1514.8000, -51.362
1514.8200, -51.353
1514.8400, -51.339
1514.8600, -51.324
1514.8800, -51.309
1514.9000, -51.293
1514.9200, -51.278
1514.9400, -51.266
1514.9600, -51.250
1514.9800, -51.234
1515.0000, -51.221
1515.0200, -51.205
1515.0400, -51.191
1515.0600, -51.174
1515.0800, -51.159
1515.1000, -51.143
1515.1200, -51.130
1515.1400, -51.113
1515.1600, -51.097
1515.1800, -51.081
1515.2000, -51.065
1515.2200, -51.054
1515.2400, -51.038
1515.2600, -51.019
1515.2800, -51.003
1515.3000, -50.986
1515.3200, -50.972
1515.3400, -50.959
1515.3600, -50.944
1515.3800, -50.931
1515.4000, -50.916
1515.4200, -50.900
1515.4400, -50.884
1515.4600, -50.866
1515.4800, -50.851
1515.5000, -50.838
1515.5200, -50.819
1515.5400, -50.808
1515.5600, -50.791
1515.5800, -50.773
1515.6000, -50.759
1515.6200, -50.743
1515.6400, -50.729
1515.6600, -50.712
1515.6800, -50.702
1515.7000, -50.684
1515.7200, -50.664
1515.7400, -50.651
1515.7600, -50.633
1515.7800, -50.623
1515.8000, -50.603
1515.8200, -50.591
1515.8400, -50.576
1515.8600, -50.559
1515.8800, -50.540
1515.9000, -50.526
1515.9200, -50.509
1515.9400, -50.493
1515.9600, -50.474
1515.9800, -50.458
1516.0000, -50.442
1516.0200, -50.427
1516.0400, -50.410
1516.0600, -50.393
1516.0800, -50.375
1516.1000, -50.359
1516.1200, -50.341
1516.1400, -50.328
1516.1600, -50.309
1516.1800, -50.291
1516.2000, -50.276
1516.2200, -50.258
1516.2400, -50.243
1516.2600, -50.228
1516.2800, -50.208
1516.3000, -50.195
1516.3200, -50.178
1516.3400, -50.164
1516.3600, -50.145
1516.3800, -50.127
1516.4000, -50.108
1516.4200, -50.090
1516.4400, -50.074
1516.4600, -50.055
1516.4800, -50.040
1516.5000, -50.018
1516.5200, -50.005
1516.5400, -49.993
1516.5600, -49.968
1516.5800, -49.949
1516.6000, -49.933
1516.6200, -49.915
1516.6400, -49.903
1516.6600, -49.886
1516.6800, -49.863
1516.7000, -49.844
1516.7200, -49.828
1516.7400, -49.808
1516.7600, -49.793
1516.7800, -49.777
1516.8000, -49.762
1516.8200, -49.742
1516.8400, -49.727
1516.8600, -49.711
1516.8800, -49.694
1516.9000, -49.677
1516.9200, -49.661
1516.9400, -49.643
1516.9600, -49.627
1516.9800, -49.609
1517.0000, -49.594
1517.0200, -49.575
1517.0400, -49.558
1517.0600, -49.538
1517.0800, -49.522
1517.1000, -49.502
1517.1200, -49.482
1517.1400, -49.466
1517.1600, -49.446
1517.1800, -49.428
1517.2000, -49.408
1517.2200, -49.389
1517.2400, -49.369
1517.2600, -49.351
1517.2800, -49.331
1517.3000, -49.310
1517.3200, -49.293
1517.3400, -49.276
1517.3600, -49.253
1517.3800, -49.233
1517.4000, -49.211
1517.4200, -49.192
1517.4400, -49.171
1517.4600, -49.153
1517.4800, -49.135
1517.5000, -49.116
1517.5200, -49.094
1517.5400, -49.077
1517.5600, -49.055
1517.5800, -49.034
1517.6000, -49.012
1517.6200, -48.992
1517.6400, -48.970
1517.6600, -48.950
1517.6800, -48.927
1517.7000, -48.905
1517.7200, -48.884
1517.7400, -48.864
1517.7600, -48.844
1517.7800, -48.820
1517.8000, -48.802
1517.8200, -48.780
1517.8400, -48.760
1517.8600, -48.739
1517.8800, -48.714
1517.9000, -48.691
1517.9200, -48.671
1517.9400, -48.651
1517.9600, -48.630
1517.9800, -48.607
1518.0000, -48.584
1518.0200, -48.562
1518.0400, -48.539
1518.0600, -48.518
1518.0800, -48.493
1518.1000, -48.470
1518.1200, -48.449
1518.1400, -48.425
1518.1600, -48.404
1518.1800, -48.381
1518.2000, -48.358
1518.2200, -48.334
1518.2400, -48.312
1518.2600, -48.290
1518.2800, -48.270
1518.3000, -48.250
1518.3200, -48.225
1518.3400, -48.202
1518.3600, -48.181
1518.3800, -48.158
1518.4000, -48.135
1518.4200, -48.110
1518.4400, -48.091
1518.4600, -48.059
1518.4800, -48.030
1518.5000, -48.025
1518.5200, -48.011
1518.5400, -47.984
1518.5600, -47.965
1518.5800, -47.945
1518.6000, -47.922
1518.6200, -47.904
1518.6400, -47.882
1518.6600, -47.866
1518.6800, -47.841
1518.7000, -47.814
1518.7200, -47.787
1518.7400, -47.768
1518.7600, -47.744
1518.7800, -47.720
1518.8000, -47.698
1518.8200, -47.676
1518.8400, -47.650
1518.8600, -47.624
1518.8800, -47.602
1518.9000, -47.576
1518.9200, -47.551
1518.9400, -47.533
1518.9600, -47.502
1518.9800, -47.476
1519.0000, -47.451
1519.0200, -47.422
1519.0400, -47.396
1519.0600, -47.370
1519.0800, -47.344
1519.1000, -47.318
1519.1200, -47.291
1519.1400, -47.264
1519.1600, -47.237
1519.1800, -47.207
1519.2000, -47.181
1519.2200, -47.154
1519.2400, -47.125
1519.2600, -47.097
1519.2800, -47.076
1519.3000, -47.047
1519.3200, -47.018
1519.3400, -46.992
1519.3600, -46.964
1519.3800, -46.935
1519.4000, -46.909
1519.4200, -46.882
1519.4400, -46.855
1519.4600, -46.830
1519.4800, -46.801
1519.5000, -46.774
1519.5200, -46.746
1519.5400, -46.720
1519.5600, -46.690
1519.5800, -46.660
1519.6000, -46.638
1519.6200, -46.616
1519.6400, -46.578
1519.6600, -46.548
1519.6800, -46.520
1519.7000, -46.510
1519.7200, -46.482
1519.7400, -46.440
1519.7600, -46.402
1519.7800, -46.373
1519.8000, -46.345
1519.8200, -46.315
1519.8400, -46.283
1519.8600, -46.254
1519.8800, -46.223
1519.9000, -46.193
1519.9200, -46.163
1519.9400, -46.136
1519.9600, -46.103
1519.9800, -46.073
1520.0000, -46.043
1520.0200, -46.011
1520.0400, -45.978
1520.0600, -45.946
1520.0800, -45.917
1520.1000, -45.882
1520.1200, -45.849
1520.1400, -45.817
1520.1600, -45.782
1520.1800, -45.750
1520.2000, -45.718
1520.2200, -45.687
1520.2400, -45.654
1520.2600, -45.623
1520.2800, -45.589
1520.3000, -45.557
1520.3200, -45.523
1520.3400, -45.489
1520.3600, -45.457
1520.3800, -45.425
1520.4000, -45.393
1520.4200, -45.358
1520.4400, -45.329
1520.4600, -45.291
1520.4800, -45.261
1520.5000, -45.228
1520.5200, -45.196
1520.5400, -45.164
1520.5600, -45.136
1520.5800, -45.096
1520.6000, -45.065
1520.6200, -45.031
1520.6400, -44.998
1520.6600, -44.962
1520.6800, -44.927
1520.7000, -44.895
1520.7200, -44.859
1520.7400, -44.825
1520.7600, -44.793
1520.7800, -44.758
1520.8000, -44.721
1520.8200, -44.686
1520.8400, -44.652
1520.8600, -44.616
1520.8800, -44.583
1520.9000, -44.548
1520.9200, -44.510
1520.9400, -44.477
1520.9600, -44.442
1520.9800, -44.404
1521.0000, -44.367
1521.0200, -44.331
1521.0400, -44.293
1521.0600, -44.258
1521.0800, -44.222
1521.1000, -44.186
1521.1200, -44.147
1521.1400, -44.110
1521.1600, -44.072
1521.1800, -44.033
1521.2000, -43.996
1521.2200, -43.958
1521.2400, -43.922
1521.2600, -43.883
1521.2800, -43.845
1521.3000, -43.807
1521.3200, -43.775
1521.3400, -43.729
1521.3600, -43.689
1521.3800, -43.650
1521.4000, -43.614
1521.4200, -43.575
1521.4400, -43.535
1521.4600, -43.496
1521.4800, -43.456
1521.5000, -43.420
1521.5200, -43.376
1521.5400, -43.336
1521.5600, -43.296
1521.5800, -43.256
1521.6000, -43.214
1521.6200, -43.174
1521.6400, -43.131
1521.6600, -43.092
1521.6800, -43.051
1521.7000, -43.009
1521.7200, -42.970
1521.7400, -42.929
1521.7600, -42.888
1521.7800, -42.847
1521.8000, -42.806
1521.8200, -42.762
1521.8400, -42.723
1521.8600, -42.683
1521.8800, -42.642
1521.9000, -42.603
1521.9200, -42.562
1521.9400, -42.523
1521.9600, -42.481
1521.9800, -42.438
1522.0000, -42.397
1522.0200, -42.353
1522.0400, -42.312
1522.0600, -42.271
1522.0800, -42.228
1522.1000, -42.185
1522.1200, -42.141
1522.1400, -42.094
1522.1600, -42.051
1522.1800, -42.008
1522.2000, -41.966
1522.2200, -41.923
1522.2400, -41.882
1522.2600, -41.838
1522.2800, -41.794
1522.3000, -41.752
1522.3200, -41.709
1522.3400, -41.666
1522.3600, -41.623
1522.3800, -41.579
1522.4000, -41.538
1522.4200, -41.494
1522.4400, -41.450
1522.4600, -41.404
1522.4800, -41.363
1522.5000, -41.317
1522.5200, -41.273
1522.5400, -41.235
1522.5600, -41.191
1522.5800, -41.139
1522.6000, -41.095
1522.6200, -41.050
1522.6400, -41.004
1522.6600, -40.958
1522.6800, -40.917
1522.7000, -40.873
1522.7200, -40.832
1522.7400, -40.788
1522.7600, -40.745
1522.7800, -40.701
1522.8000, -40.657
1522.8200, -40.612
1522.8400, -40.569
1522.8600, -40.527
1522.8800, -40.482
1522.9000, -40.439
1522.9200, -40.397
1522.9400, -40.352
1522.9600, -40.309
1522.9800, -40.265
1523.0000, -40.221
1523.0200, -40.177
1523.0400, -40.134
1523.0600, -40.092
1523.0800, -40.049
1523.1000, -40.003
1523.1200, -39.958
1523.1400, -39.913
1523.1600, -39.868
1523.1800, -39.825
1523.2000, -39.782
1523.2200, -39.736
1523.2400, -39.694
1523.2600, -39.649
1523.2800, -39.605
1523.3000, -39.561
1523.3200, -39.514
1523.3400, -39.469
1523.3600, -39.428
1523.3800, -39.382
1523.4000, -39.339
1523.4200, -39.295
1523.4400, -39.252
1523.4600, -39.207
1523.4800, -39.165
1523.5000, -39.122
1523.5200, -39.081
1523.5400, -39.038
1523.5600, -38.994
1523.5800, -38.951
1523.6000, -38.907
1523.6200, -38.864
1523.6400, -38.820
1523.6600, -38.775
1523.6800, -38.736
1523.7000, -38.693
1523.7200, -38.652
1523.7400, -38.607
1523.7600, -38.565
1523.7800, -38.522
1523.8000, -38.478
1523.8200, -38.433
1523.8400, -38.393
1523.8600, -38.351
1523.8800, -38.310
1523.9000, -38.265
1523.9200, -38.223
1523.9400, -38.178
1523.9600, -38.137
1523.9800, -38.095
1524.0000, -38.054
1524.0200, -38.014
1524.0400, -37.970
1524.0600, -37.926
1524.0800, -37.881
1524.1000, -37.832
1524.1200, -37.777
1524.1400, -37.737
1524.1600, -37.705
1524.1800, -37.661
1524.2000, -37.620
1524.2200, -37.576
1524.2400, -37.531
1524.2600, -37.487
1524.2800, -37.438
1524.3000, -37.398
1524.3200, -37.358
1524.3400, -37.315
1524.3600, -37.270
1524.3800, -37.225
1524.4000, -37.180
1524.4200, -37.136
1524.4400, -37.092
1524.4600, -37.049
1524.4800, -37.005
1524.5000, -36.961
1524.5200, -36.918
1524.5400, -36.876
1524.5600, -36.832
1524.5800, -36.788
1524.6000, -36.747
1524.6200, -36.705
1524.6400, -36.663
1524.6600, -36.618
1524.6800, -36.574
1524.7000, -36.532
1524.7200, -36.489
1524.7400, -36.446
1524.7600, -36.402
1524.7800, -36.360
1524.8000, -36.314
1524.8200, -36.272
1524.8400, -36.224
1524.8600, -36.182
1524.8800, -36.137
1524.9000, -36.092
1524.9200, -36.048
1524.9400, -36.001
1524.9600, -35.956
1524.9800, -35.917
1525.0000, -35.873
1525.0200, -35.833
1525.0400, -35.770
1525.0600, -35.746
1525.0800, -35.691
1525.1000, -35.658
1525.1200, -35.617
1525.1400, -35.577
1525.1600, -35.536
1525.1800, -35.494
1525.2000, -35.450
1525.2200, -35.407
1525.2400, -35.366
1525.2600, -35.324
1525.2800, -35.283
1525.3000, -35.244
1525.3200, -35.203
1525.3400, -35.162
1525.3600, -35.122
1525.3800, -35.081
1525.4000, -35.040
1525.4200, -34.999
1525.4400, -34.956
1525.4600, -34.914
1525.4800, -34.875
1525.5000, -34.832
1525.5200, -34.791
1525.5400, -34.748
1525.5600, -34.708
1525.5800, -34.663
1525.6000, -34.621
1525.6200, -34.583
1525.6400, -34.544
1525.6600, -34.503
1525.6800, -34.464
1525.7000, -34.420
1525.7200, -34.384
1525.7400, -34.345
1525.7600, -34.311
1525.7800, -34.275
1525.8000, -34.238
1525.8200, -34.205
1525.8400, -34.169
1525.8600, -34.134
1525.8800, -34.097
1525.9000, -34.060
1525.9200, -34.026
1525.9400, -33.985
1525.9600, -33.946
1525.9800, -33.910
1526.0000, -33.870
1526.0200, -33.827
1526.0400, -33.782
1526.0600, -33.730
1526.0800, -33.699
1526.1000, -33.660
1526.1200, -33.622
1526.1400, -33.575
1526.1600, -33.529
1526.1800, -33.487
1526.2000, -33.442
1526.2200, -33.398
1526.2400, -33.352
1526.2600, -33.307
1526.2800, -33.266
1526.3000, -33.220
1526.3200, -33.173
1526.3400, -33.127
1526.3600, -33.083
1526.3800, -33.036
1526.4000, -32.992
1526.4200, -32.945
1526.4400, -32.899
1526.4600, -32.858
1526.4800, -32.813
1526.5000, -32.761
1526.5200, -32.716
1526.5400, -32.669
1526.5600, -32.624
1526.5800, -32.576
1526.6000, -32.527
1526.6200, -32.481
1526.6400, -32.435
1526.6600, -32.388
1526.6800, -32.344
1526.7000, -32.295
1526.7200, -32.246
1526.7400, -32.203
1526.7600, -32.157
1526.7800, -32.110
1526.8000, -32.065
1526.8200, -32.019
1526.8400, -31.978
1526.8600, -31.931
1526.8800, -31.883
1526.9000, -31.843
1526.9200, -31.803
1526.9400, -31.763
1526.9600, -31.723
1526.9800, -31.680
1527.0000, -31.643
1527.0200, -31.605
1527.0400, -31.566
1527.0600, -31.525
1527.0800, -31.486
1527.1000, -31.450
1527.1200, -31.411
1527.1400, -31.372
1527.1600, -31.329
1527.1800, -31.288
1527.2000, -31.245
1527.2200, -31.198
1527.2400, -31.155
1527.2600, -31.113
1527.2800, -31.069
1527.3000, -31.020
1527.3200, -30.974
1527.3400, -30.934
1527.3600, -30.887
1527.3800, -30.838
1527.4000, -30.795
1527.4200, -30.753
1527.4400, -30.710
1527.4600, -30.667
1527.4800, -30.620
1527.5000, -30.577
1527.5200, -30.533
1527.5400, -30.487
1527.5600, -30.441
1527.5800, -30.395
1527.6000, -30.353
1527.6200, -30.315
1527.6400, -30.270
1527.6600, -30.227
1527.6800, -30.188
1527.7000, -30.149
1527.7200, -30.106
1527.7400, -30.064
1527.7600, -30.022
1527.7800, -29.983
1527.8000, -29.936
1527.8200, -29.893
1527.8400, -29.849
1527.8600, -29.808
1527.8800, -29.765
1527.9000, -29.727
1527.9200, -29.686
1527.9400, -29.647
1527.9600, -29.604
1527.9800, -29.565
1528.0000, -29.527
1528.0200, -29.487
1528.0400, -29.445
1528.0600, -29.408
1528.0800, -29.371
1528.1000, -29.334
1528.1200, -29.293
1528.1400, -29.257
1528.1600, -29.219
1528.1800, -29.177
1528.2000, -29.140
1528.2200, -29.104
1528.2400, -29.065
1528.2600, -29.022
1528.2800, -28.978
1528.3000, -28.936
1528.3200, -28.892
1528.3400, -28.847
1528.3600, -28.802
1528.3800, -28.754
1528.4000, -28.708
1528.4200, -28.662
1528.4400, -28.609
1528.4600, -28.554
1528.4800, -28.506
1528.5000, -28.453
1528.5200, -28.397
1528.5400, -28.345
1528.5600, -28.293
1528.5800, -28.247
1528.6000, -28.199
1528.6200, -28.153
1528.6400, -28.103
1528.6600, -28.054
1528.6800, -28.011
1528.7000, -27.971
1528.7200, -27.912
1528.7400, -27.862
1528.7600, -27.819
1528.7800, -27.781
1528.8000, -27.734
1528.8200, -27.734
1528.8400, -27.676
1528.8600, -27.575
1528.8800, -27.523
1528.9000, -27.482
1528.9200, -27.442
1528.9400, -27.419
1528.9600, -27.403
1528.9800, -27.365
1529.0000, -27.365
1529.0200, -27.353
1529.0400, -27.288
1529.0600, -27.183
1529.0800, -27.097
1529.1000, -27.055
1529.1200, -27.038
1529.1400, -26.972
1529.1600, -26.923
1529.1800, -26.908
1529.2000, -26.912
1529.2200, -26.873
1529.2400, -26.782
1529.2600, -26.720
1529.2800, -26.751
1529.3000, -26.740
1529.3200, -26.747
1529.3400, -26.720
1529.3600, -26.691
1529.3800, -26.649
1529.4000, -26.635
1529.4200, -26.565
1529.4400, -26.526
1529.4600, -26.543
1529.4800, -26.514
1529.5000, -26.494
1529.5200, -26.461
1529.5400, -26.452
1529.5600, -26.440
1529.5800, -26.375
1529.6000, -26.397
1529.6200, -26.345
1529.6400, -26.305
1529.6600, -26.267
1529.6800, -26.200
1529.7000, -26.195
1529.7200, -26.178
1529.7400, -26.166
1529.7600, -26.112
1529.7800, -26.052
1529.8000, -25.993
1529.8200, -25.956
1529.8400, -26.059
1529.8600, -26.071
1529.8800, -26.027
1529.9000, -26.061
1529.9200, -26.026
1529.9400, -25.998
1529.9600, -25.910
1529.9800, -25.890
1530.0000, -25.813
1530.0200, -25.709
1530.0400, -25.649
1530.0600, -25.584
1530.0800, -25.588
1530.1000, -25.537
1530.1200, -25.504
1530.1400, -25.468
1530.1600, -25.514
1530.1800, -25.515
1530.2000, -25.535
1530.2200, -25.626
1530.2400, -25.534
1530.2600, -25.438
1530.2800, -25.484
1530.3000, -25.419
1530.3200, -25.399
1530.3400, -25.334
1530.3600, -25.291
1530.3800, -25.222
1530.4000, -25.136
1530.4200, -25.098
1530.4400, -25.167
1530.4600, -25.092
1530.4800, -25.081
1530.5000, -25.177
1530.5200, -25.236
1530.5400, -25.220
1530.5600, -25.153
1530.5800, -25.122
1530.6000, -25.087
1530.6200, -24.999
1530.6400, -24.994
1530.6600, -24.959
1530.6800, -24.856
1530.7000, -23.109
1530.7200, -24.349
1530.7400, -24.927
1530.7600, -23.531
1530.7800, -24.408
1530.8000, -24.728
1530.8200, -24.732
1530.8400, -23.543
1530.8600, -22.446
1530.8800, -24.033
1530.9000, -24.754
1530.9200, -24.895
1530.9400, -24.973
1530.9600, -24.880
1530.9800, -24.798
1531.0000, -24.304
1531.0200, -24.013
1531.0400, -24.665
1531.0600, -23.846
1531.0800, -20.471
1531.1000, -19.985
1531.1200, -19.117
1531.1400, -19.462
1531.1600, -18.244
1531.1800, -20.439
1531.2000, -19.235
1531.2200, -21.150
1531.2400, -23.383
1531.2600, -24.343
1531.2800, -24.726
1531.3000, -24.731
1531.3200, -24.820
1531.3400, -24.806
1531.3600, -24.702
1531.3800, -24.445
1531.4000, -24.561
1531.4200, -25.038
1531.4400, -25.060
1531.4600, -25.094
1531.4800, -25.149
1531.5000, -25.163
1531.5200, -25.127
1531.5400, -25.146
1531.5600, -21.193
1531.5800, -20.908
1531.6000, -19.495
1531.6200, -19.036
1531.6400, -18.567
1531.6600, -17.909
1531.6800, -17.376
1531.7000, -17.657
1531.7200, -23.048
1531.7400, -22.991
1531.7600, -23.456
1531.7800, -25.094
1531.8000, -23.973
1531.8200, -24.843
1531.8400, -25.215
1531.8600, -24.954
1531.8800, -25.026
1531.9000, -25.236
1531.9200, -25.275
1531.9400, -25.163
1531.9600, -25.017
1531.9800, -24.993
1532.0000, -24.894
1532.0200, -24.630
1532.0400, -21.664
1532.0600, -21.097
1532.0800, -21.701
1532.1000, -23.536
1532.1200, -22.221
1532.1400, -20.737
1532.1600, -19.878
1532.1800, -21.755
1532.2000, -21.737
1532.2200, -20.370
1532.2400, -23.842
1532.2600, -25.001
1532.2800, -24.209
1532.3000, -21.205
1532.3200, -21.567
1532.3400, -22.681
1532.3600, -22.071
1532.3800, -22.322
1532.4000, -23.709
1532.4200, -22.173
1532.4400, -22.684
1532.4600, -22.613
1532.4800, -24.527
1532.5000, -23.711
1532.5200, -20.358
1532.5400, -19.677
1532.5600, -19.733
1532.5800, -21.972
1532.6000, -19.986
1532.6200, -21.595
1532.6400, -20.364
1532.6600, -18.575
1532.6800, -20.165
1532.7000, -19.513
1532.7200, -19.257
1532.7400, -19.534
1532.7600, -22.315
1532.7800, -22.939
1532.8000, -22.488
1532.8200, -25.334
1532.8400, -25.588
1532.8600, -25.636
1532.8800, -25.420
1532.9000, -25.742
1532.9200, -25.766
1532.9400, -25.713
1532.9600, -25.723
1532.9800, -25.867
1533.0000, -25.970
1533.0200, -26.072
1533.0400, -26.105
1533.0600, -26.251
1533.0800, -26.307
1533.1000, -26.320
1533.1200, -26.364
1533.1400, -26.452
1533.1600, -26.463
1533.1800, -26.403
1533.2000, -26.397
1533.2200, -26.433
1533.2400, -26.603
1533.2600, -26.567
1533.2800, -26.568
1533.3000, -26.537
1533.3200, -26.648
1533.3400, -26.765
1533.3600, -26.924
1533.3800, -27.030
1533.4000, -27.087
1533.4200, -27.154
1533.4400, -27.143
1533.4600, -27.196
1533.4800, -27.257
1533.5000, -27.293
1533.5200, -27.267
1533.5400, -27.449
1533.5600, -27.489
1533.5800, -27.404
1533.6000, -27.393
1533.6200, -27.518
1533.6400, -27.596
1533.6600, -27.517
1533.6800, -27.415
1533.7000, -27.554
1533.7200, -27.722
1533.7400, -27.725
1533.7600, -27.672
1533.7800, -27.666
1533.8000, -27.739
1533.8200, -27.730
1533.8400, -27.803
1533.8600, -27.927
1533.8800, -27.939
1533.9000, -27.942
1533.9200, -27.962
1533.9400, -28.076
1533.9600, -28.076
1533.9800, -28.122
1534.0000, -28.151
1534.0200, -28.235
1534.0400, -28.276
1534.0600, -28.352
1534.0800, -28.342
1534.1000, -28.334
1534.1200, -28.469
1534.1400, -28.538
1534.1600, -28.575
1534.1800, -28.554
1534.2000, -28.672
1534.2200, -28.722
1534.2400, -28.783
1534.2600, -28.831
1534.2800, -28.918
1534.3000, -29.023
1534.3200, -29.012
1534.3400, -29.047
1534.3600, -29.140
1534.3800, -29.230
1534.4000, -29.324
1534.4200, -29.395
1534.4400, -29.435
1534.4600, -29.454
1534.4800, -29.501
1534.5000, -29.566
1534.5200, -29.652
1534.5400, -29.704
1534.5600, -29.792
1534.5800, -29.842
1534.6000, -29.910
1534.6200, -29.960
1534.6400, -29.993
1534.6600, -30.046
1534.6800, -30.116
1534.7000, -30.166
1534.7200, -30.222
1534.7400, -30.256
1534.7600, -30.302
1534.7800, -30.355
1534.8000, -30.409
1534.8200, -30.457
1534.8400, -30.509
1534.8600, -30.557
1534.8800, -30.608
1534.9000, -30.658
1534.9200, -30.710
1534.9400, -30.765
1534.9600, -30.819
1534.9800, -30.871
1535.0000, -30.923
1535.0200, -30.979
1535.0400, -31.029
1535.0600, -31.083
1535.0800, -31.136
1535.1000, -31.188
1535.1200, -31.240
1535.1400, -31.292
1535.1600, -31.342
1535.1800, -31.393
1535.2000, -31.444
1535.2200, -31.496
1535.2400, -31.549
1535.2600, -31.601
1535.2800, -31.655
1535.3000, -31.708
1535.3200, -31.759
1535.3400, -31.809
1535.3600, -31.860
1535.3800, -31.913
1535.4000, -31.969
1535.4200, -32.020
1535.4400, -32.071
1535.4600, -32.124
1535.4800, -32.176
1535.5000, -32.227
1535.5200, -32.276
1535.5400, -32.328
1535.5600, -32.378
1535.5800, -32.428
1535.6000, -32.477
1535.6200, -32.526
1535.6400, -32.572
1535.6600, -32.618
1535.6800, -32.662
1535.7000, -32.708
1535.7200, -32.752
1535.7400, -32.799
1535.7600, -32.842
1535.7800, -32.886
1535.8000, -32.930
1535.8200, -32.974
1535.8400, -33.016
1535.8600, -33.061
1535.8800, -33.105
1535.9000, -33.148
1535.9200, -33.189
1535.9400, -33.231
1535.9600, -33.270
1535.9800, -33.309
1536.0000, -33.348
1536.0200, -33.391
1536.0400, -33.429
1536.0600, -33.472
1536.0800, -33.513
1536.1000, -33.554
1536.1200, -33.595
1536.1400, -33.636
1536.1600, -33.677
1536.1800, -33.715
1536.2000, -33.755
1536.2200, -33.795
1536.2400, -33.837
1536.2600, -33.877
1536.2800, -33.916
1536.3000, -33.956
1536.3200, -33.996
1536.3400, -34.037
1536.3600, -34.077
1536.3800, -34.119
1536.4000, -34.157
1536.4200, -34.196
1536.4400, -34.234
1536.4600, -34.272
1536.4800, -34.307
1536.5000, -34.345
1536.5200, -34.381
1536.5400, -34.418
1536.5600, -34.455
1536.5800, -34.490
1536.6000, -34.525
1536.6200, -34.561
1536.6400, -34.598
1536.6600, -34.634
1536.6800, -34.668
1536.7000, -34.703
1536.7200, -34.736
1536.7400, -34.769
1536.7600, -34.801
1536.7800, -34.834
1536.8000, -34.866
1536.8200, -34.900
1536.8400, -34.933
1536.8600, -34.966
1536.8800, -34.999
1536.9000, -35.029
1536.9200, -35.059
1536.9400, -35.088
1536.9600, -35.118
1536.9800, -35.148
1537.0000, -35.177
1537.0200, -35.207
1537.0400, -35.234
1537.0600, -35.262
1537.0800, -35.289
1537.1000, -35.315
1537.1200, -35.343
1537.1400, -35.370
1537.1600, -35.397
1537.1800, -35.423
1537.2000, -35.448
1537.2200, -35.475
1537.2400, -35.501
1537.2600, -35.523
1537.2800, -35.548
1537.3000, -35.573
1537.3200, -35.599
1537.3400, -35.624
1537.3600, -35.648
1537.3800, -35.669
1537.4000, -35.695
1537.4200, -35.719
1537.4400, -35.742
1537.4600, -35.763
1537.4800, -35.786
1537.5000, -35.811
1537.5200, -35.834
1537.5400, -35.856
1537.5600, -35.878
1537.5800, -35.900
1537.6000, -35.924
1537.6200, -35.947
1537.6400, -35.970
1537.6600, -35.992
1537.6800, -36.014
1537.7000, -36.037
1537.7200, -36.059
1537.7400, -36.080
1537.7600, -36.101
1537.7800, -36.123
1537.8000, -36.144
1537.8200, -36.165
1537.8400, -36.185
1537.8600, -36.205
1537.8800, -36.225
1537.9000, -36.244
1537.9200, -36.263
1537.9400, -36.282
1537.9600, -36.302
1537.9800, -36.321
1538.0000, -36.340
1538.0200, -36.359
1538.0400, -36.376
1538.0600, -36.392
1538.0800, -36.411
1538.1000, -36.429
1538.1200, -36.445
1538.1400, -36.462
1538.1600, -36.480
1538.1800, -36.496
1538.2000, -36.513
1538.2200, -36.528
1538.2400, -36.542
1538.2600, -36.557
1538.2800, -36.570
1538.3000, -36.584
1538.3200, -36.598
1538.3400, -36.611
1538.3600, -36.625
1538.3800, -36.638
1538.4000, -36.651
1538.4200, -36.664
1538.4400, -36.677
1538.4600, -36.691
1538.4800, -36.702
1538.5000, -36.713
1538.5200, -36.725
1538.5400, -36.736
1538.5600, -36.746
1538.5800, -36.758
1538.6000, -36.770
1538.6200, -36.780
1538.6400, -36.792
1538.6600, -36.803
1538.6800, -36.815
1538.7000, -36.825
1538.7200, -36.835
1538.7400, -36.844
1538.7600, -36.853
1538.7800, -36.864
1538.8000, -36.873
1538.8200, -36.883
1538.8400, -36.891
1538.8600, -36.901
1538.8800, -36.910
1538.9000, -36.918
1538.9200, -36.927
1538.9400, -36.935
1538.9600, -36.942
1538.9800, -36.950
1539.0000, -36.956
1539.0200, -36.964
1539.0400, -36.971
1539.0600, -36.977
1539.0800, -36.983
1539.1000, -36.990
1539.1200, -36.994
1539.1400, -37.001
1539.1600, -37.007
1539.1800, -37.011
1539.2000, -37.017
1539.2200, -37.023
1539.2400, -37.028
1539.2600, -37.034
1539.2800, -37.037
1539.3000, -37.043
1539.3200, -37.047
1539.3400, -37.054
1539.3600, -37.059
1539.3800, -37.065
1539.4000, -37.068
1539.4200, -37.072
1539.4400, -37.075
1539.4600, -37.080
1539.4800, -37.083
1539.5000, -37.086
1539.5200, -37.089
1539.5400, -37.094
1539.5600, -37.099
1539.5800, -37.103
1539.6000, -37.107
1539.6200, -37.110
1539.6400, -37.114
1539.6600, -37.118
1539.6800, -37.122
1539.7000, -37.124
1539.7200, -37.129
1539.7400, -37.130
1539.7600, -37.132
1539.7800, -37.136
1539.8000, -37.139
1539.8200, -37.143
1539.8400, -37.144
1539.8600, -37.147
1539.8800, -37.152
1539.9000, -37.156
1539.9200, -37.160
1539.9400, -37.165
1539.9600, -37.166
1539.9800, -37.169
1540.0000, -37.171
1540.0200, -37.174
1540.0400, -37.177
1540.0600, -37.179
1540.0800, -37.180
1540.1000, -37.181
1540.1200, -37.181
1540.1400, -37.184
1540.1600, -37.185
1540.1800, -37.186
1540.2000, -37.187
1540.2200, -37.189
1540.2400, -37.189
1540.2600, -37.189
1540.2800, -37.190
1540.3000, -37.190
1540.3200, -37.190
1540.3400, -37.188
1540.3600, -37.190
1540.3800, -37.188
1540.4000, -37.188
1540.4200, -37.188
1540.4400, -37.190
1540.4600, -37.188
1540.4800, -37.188
1540.5000, -37.189
1540.5200, -37.188
1540.5400, -37.187
1540.5600, -37.186
1540.5800, -37.186
1540.6000, -37.185
1540.6200, -37.185
1540.6400, -37.184
1540.6600, -37.182
1540.6800, -37.180
1540.7000, -37.180
1540.7200, -37.178
1540.7400, -37.176
1540.7600, -37.173
1540.7800, -37.172
1540.8000, -37.170
1540.8200, -37.167
1540.8400, -37.164
1540.8600, -37.161
1540.8800, -37.158
1540.9000, -37.156
1540.9200, -37.152
1540.9400, -37.149
1540.9600, -37.146
1540.9800, -37.143
1541.0000, -37.140
1541.0200, -37.138
1541.0400, -37.136
1541.0600, -37.133
1541.0800, -37.129
1541.1000, -37.126
1541.1200, -37.123
1541.1400, -37.120
1541.1600, -37.119
1541.1800, -37.116
1541.2000, -37.114
1541.2200, -37.111
1541.2400, -37.108
1541.2600, -37.105
1541.2800, -37.102
1541.3000, -37.098
1541.3200, -37.096
1541.3400, -37.093
1541.3600, -37.090
1541.3800, -37.088
1541.4000, -37.085
1541.4200, -37.082
1541.4400, -37.078
1541.4600, -37.076
1541.4800, -37.073
1541.5000, -37.069
1541.5200, -37.065
1541.5400, -37.061
1541.5600, -37.057
1541.5800, -37.054
1541.6000, -37.050
1541.6200, -37.048
1541.6400, -37.042
1541.6600, -37.038
1541.6800, -37.035
1541.7000, -37.031
1541.7200, -37.026
1541.7400, -37.023
1541.7600, -37.019
1541.7800, -37.016
1541.8000, -37.011
1541.8200, -37.007
1541.8400, -37.003
1541.8600, -36.999
1541.8800, -36.995
1541.9000, -36.992
1541.9200, -36.988
1541.9400, -36.983
1541.9600, -36.982
1541.9800, -36.976
1542.0000, -36.972
1542.0200, -36.966
1542.0400, -36.961
1542.0600, -36.954
1542.0800, -36.950
1542.1000, -36.945
1542.1200, -36.938
1542.1400, -36.932
1542.1600, -36.929
1542.1800, -36.924
1542.2000, -36.919
1542.2200, -36.914
1542.2400, -36.909
1542.2600, -36.904
1542.2800, -36.898
1542.3000, -36.893
1542.3200, -36.889
1542.3400, -36.885
1542.3600, -36.879
1542.3800, -36.876
1542.4000, -36.871
1542.4200, -36.869
1542.4400, -36.863
1542.4600, -36.859
1542.4800, -36.854
1542.5000, -36.849
1542.5200, -36.844
1542.5400, -36.839
1542.5600, -36.834
1542.5800, -36.830
1542.6000, -36.823
1542.6200, -36.819
1542.6400, -36.814
1542.6600, -36.809
1542.6800, -36.806
1542.7000, -36.799
1542.7200, -36.795
1542.7400, -36.791
1542.7600, -36.787
1542.7800, -36.780
1542.8000, -36.775
1542.8200, -36.768
1542.8400, -36.762
1542.8600, -36.757
1542.8800, -36.750
1542.9000, -36.746
1542.9200, -36.740
1542.9400, -36.734
1542.9600, -36.729
1542.9800, -36.723
1543.0000, -36.719
1543.0200, -36.713
1543.0400, -36.709
1543.0600, -36.701
1543.0800, -36.697
1543.1000, -36.692
1543.1200, -36.687
1543.1400, -36.680
1543.1600, -36.675
1543.1800, -36.669
1543.2000, -36.665
1543.2200, -36.659
1543.2400, -36.656
1543.2600, -36.652
1543.2800, -36.648
1543.3000, -36.644
1543.3200, -36.638
1543.3400, -36.635
1543.3600, -36.631
1543.3800, -36.627
1543.4000, -36.624
1543.4200, -36.622
1543.4400, -36.619
1543.4600, -36.615
1543.4800, -36.612
1543.5000, -36.610
1543.5200, -36.607
1543.5400, -36.605
1543.5600, -36.601
1543.5800, -36.598
1543.6000, -36.595
1543.6200, -36.593
1543.6400, -36.592
1543.6600, -36.588
1543.6800, -36.586
1543.7000, -36.586
1543.7200, -36.585
1543.7400, -36.584
1543.7600, -36.584
1543.7800, -36.581
1543.8000, -36.580
1543.8200, -36.577
1543.8400, -36.575
1543.8600, -36.572
1543.8800, -36.570
1543.9000, -36.568
1543.9200, -36.568
1543.9400, -36.566
1543.9600, -36.563
1543.9800, -36.562
1544.0000, -36.562
1544.0200, -36.560
1544.0400, -36.560
1544.0600, -36.559
1544.0800, -36.556
1544.1000, -36.556
1544.1200, -36.555
1544.1400, -36.553
1544.1600, -36.552
1544.1800, -36.551
1544.2000, -36.549
1544.2200, -36.548
1544.2400, -36.545
1544.2600, -36.544
1544.2800, -36.542
1544.3000, -36.539
1544.3200, -36.536
1544.3400, -36.534
1544.3600, -36.532
1544.3800, -36.531
1544.4000, -36.531
1544.4200, -36.528
1544.4400, -36.526
1544.4600, -36.525
1544.4800, -36.523
1544.5000, -36.523
1544.5200, -36.521
1544.5400, -36.519
1544.5600, -36.518
1544.5800, -36.516
1544.6000, -36.516
1544.6200, -36.515
1544.6400, -36.515
1544.6600, -36.515
1544.6800, -36.516
1544.7000, -36.519
1544.7200, -36.521
1544.7400, -36.522
1544.7600, -36.525
1544.7800, -36.527
1544.8000, -36.530
1544.8200, -36.531
1544.8400, -36.533
1544.8600, -36.535
1544.8800, -36.539
1544.9000, -36.541
1544.9200, -36.543
1544.9400, -36.545
1544.9600, -36.547
1544.9800, -36.549
1545.0000, -36.553
1545.0200, -36.554
1545.0400, -36.555
1545.0600, -36.556
1545.0800, -36.558
1545.1000, -36.558
1545.1200, -36.560
1545.1400, -36.563
1545.1600, -36.563
1545.1800, -36.563
1545.2000, -36.563
1545.2200, -36.563
1545.2400, -36.563
1545.2600, -36.561
1545.2800, -36.557
1545.3000, -36.556
1545.3200, -36.555
1545.3400, -36.555
1545.3600, -36.554
1545.3800, -36.555
1545.4000, -36.553
1545.4200, -36.553
1545.4400, -36.553
1545.4600, -36.552
1545.4800, -36.552
1545.5000, -36.550
1545.5200, -36.550
1545.5400, -36.549
1545.5600, -36.548
1545.5800, -36.548
1545.6000, -36.547
1545.6200, -36.546
1545.6400, -36.545
1545.6600, -36.545
1545.6800, -36.545
1545.7000, -36.545
1545.7200, -36.546
1545.7400, -36.543
1545.7600, -36.545
1545.7800, -36.546
1545.8000, -36.546
1545.8200, -36.547
1545.8400, -36.547
1545.8600, -36.548
1545.8800, -36.549
1545.9000, -36.551
1545.9200, -36.552
1545.9400, -36.554
1545.9600, -36.555
1545.9800, -36.555
1546.0000, -36.557
1546.0200, -36.559
1546.0400, -36.560
1546.0600, -36.560
1546.0800, -36.563
1546.1000, -36.565
1546.1200, -36.568
1546.1400, -36.569
1546.1600, -36.572
1546.1800, -36.577
1546.2000, -36.579
1546.2200, -36.582
1546.2400, -36.583
1546.2600, -36.585
1546.2800, -36.587
1546.3000, -36.589
1546.3200, -36.590
1546.3400, -36.592
1546.3600, -36.595
1546.3800, -36.595
1546.4000, -36.597
1546.4200, -36.597
1546.4400, -36.598
1546.4600, -36.600
1546.4800, -36.602
1546.5000, -36.603
1546.5200, -36.605
1546.5400, -36.607
1546.5600, -36.608
1546.5800, -36.610
1546.6000, -36.609
1546.6200, -36.610
1546.6400, -36.612
1546.6600, -36.615
1546.6800, -36.616
1546.7000, -36.617
1546.7200, -36.620
1546.7400, -36.621
1546.7600, -36.623
1546.7800, -36.624
1546.8000, -36.627
1546.8200, -36.631
1546.8400, -36.632
1546.8600, -36.634
1546.8800, -36.636
1546.9000, -36.640
1546.9200, -36.643
1546.9400, -36.646
1546.9600, -36.649
1546.9800, -36.650
1547.0000, -36.655
1547.0200, -36.658
1547.0400, -36.659
1547.0600, -36.661
1547.0800, -36.664
1547.1000, -36.668
1547.1200, -36.670
1547.1400, -36.673
1547.1600, -36.677
1547.1800, -36.681
1547.2000, -36.685
1547.2200, -36.687
1547.2400, -36.692
1547.2600, -36.697
1547.2800, -36.703
1547.3000, -36.707
1547.3200, -36.714
1547.3400, -36.717
1547.3600, -36.723
1547.3800, -36.725
1547.4000, -36.728
1547.4200, -36.733
1547.4400, -36.736
1547.4600, -36.738
1547.4800, -36.743
1547.5000, -36.747
1547.5200, -36.749
1547.5400, -36.754
1547.5600, -36.756
1547.5800, -36.760
1547.6000, -36.764
1547.6200, -36.766
1547.6400, -36.769
1547.6600, -36.772
1547.6800, -36.773
1547.7000, -36.776
1547.7200, -36.776
1547.7400, -36.779
1547.7600, -36.781
1547.7800, -36.783
1547.8000, -36.786
1547.8200, -36.788
1547.8400, -36.792
1547.8600, -36.794
1547.8800, -36.795
1547.9000, -36.799
1547.9200, -36.802
1547.9400, -36.805
1547.9600, -36.806
1547.9800, -36.808
1548.0000, -36.811
1548.0200, -36.815
1548.0400, -36.817
1548.0600, -36.822
1548.0800, -36.825
1548.1000, -36.828
1548.1200, -36.832
1548.1400, -36.835
1548.1600, -36.840
1548.1800, -36.844
1548.2000, -36.848
1548.2200, -36.852
1548.2400, -36.857
1548.2600, -36.862
1548.2800, -36.867
1548.3000, -36.870
1548.3200, -36.873
1548.3400, -36.876
1548.3600, -36.879
1548.3800, -36.881
1548.4000, -36.883
1548.4200, -36.884
1548.4400, -36.886
1548.4600, -36.886
1548.4800, -36.889
1548.5000, -36.890
1548.5200, -36.892
1548.5400, -36.895
1548.5600, -36.897
1548.5800, -36.897
1548.6000, -36.898
1548.6200, -36.900
1548.6400, -36.901
1548.6600, -36.900
1548.6800, -36.902
1548.7000, -36.902
1548.7200, -36.904
1548.7400, -36.904
1548.7600, -36.906
1548.7800, -36.907
1548.8000, -36.907
1548.8200, -36.910
1548.8400, -36.911
1548.8600, -36.914
1548.8800, -36.915
1548.9000, -36.916
1548.9200, -36.918
1548.9400, -36.920
1548.9600, -36.922
1548.9800, -36.923
1549.0000, -36.927
1549.0200, -36.929
1549.0400, -36.931
1549.0600, -36.934
1549.0800, -36.933
1549.1000, -36.937
1549.1200, -36.940
1549.1400, -36.943
1549.1600, -36.946
1549.1800, -36.950
1549.2000, -36.954
1549.2200, -36.955
1549.2400, -36.960
1549.2600, -36.964
1549.2800, -36.968
1549.3000, -36.971
1549.3200, -36.974
1549.3400, -36.978
1549.3600, -36.983
1549.3800, -36.986
1549.4000, -36.989
1549.4200, -36.994
1549.4400, -36.997
1549.4600, -37.001
1549.4800, -37.005
1549.5000, -37.009
1549.5200, -37.014
1549.5400, -37.021
1549.5600, -37.025
1549.5800, -37.031
1549.6000, -37.034
1549.6200, -37.037
1549.6400, -37.041
1549.6600, -37.046
1549.6800, -37.050
1549.7000, -37.053
1549.7200, -37.059
1549.7400, -37.061
1549.7600, -37.067
1549.7800, -37.072
1549.8000, -37.076
1549.8200, -37.080
1549.8400, -37.083
1549.8600, -37.087
1549.8800, -37.092
1549.9000, -37.095
1549.9200, -37.099
1549.9400, -37.100
1549.9600, -37.104
1549.9800, -37.106
1550.0000, -37.107
1550.0200, -37.111
1550.0400, -37.113
1550.0600, -37.115
1550.0800, -37.117
1550.1000, -37.119
1550.1200, -37.123
1550.1400, -37.126
1550.1600, -37.130
1550.1800, -37.132
1550.2000, -37.135
1550.2200, -37.137
1550.2400, -37.140
1550.2600, -37.143
1550.2800, -37.145
1550.3000, -37.147
1550.3200, -37.151
1550.3400, -37.152
1550.3600, -37.155
1550.3800, -37.158
1550.4000, -37.161
1550.4200, -37.164
1550.4400, -37.168
1550.4600, -37.170
1550.4800, -37.173
1550.5000, -37.176
1550.5200, -37.179
1550.5400, -37.184
1550.5600, -37.187
1550.5800, -37.189
1550.6000, -37.191
1550.6200, -37.193
1550.6400, -37.195
1550.6600, -37.197
1550.6800, -37.197
1550.7000, -37.200
1550.7200, -37.202
1550.7400, -37.204
1550.7600, -37.207
1550.7800, -37.209
1550.8000, -37.211
1550.8200, -37.214
1550.8400, -37.215
1550.8600, -37.217
1550.8800, -37.219
1550.9000, -37.223
1550.9200, -37.223
1550.9400, -37.226
1550.9600, -37.227
1550.9800, -37.229
1551.0000, -37.231
1551.0200, -37.232
1551.0400, -37.232
1551.0600, -37.233
1551.0800, -37.234
1551.1000, -37.236
1551.1200, -37.237
1551.1400, -37.237
1551.1600, -37.237
1551.1800, -37.241
1551.2000, -37.242
1551.2200, -37.242
1551.2400, -37.245
1551.2600, -37.247
1551.2800, -37.250
1551.3000, -37.252
1551.3200, -37.254
1551.3400, -37.258
1551.3600, -37.259
1551.3800, -37.260
1551.4000, -37.263
1551.4200, -37.265
1551.4400, -37.268
1551.4600, -37.269
1551.4800, -37.272
1551.5000, -37.274
1551.5200, -37.277
1551.5400, -37.280
1551.5600, -37.285
1551.5800, -37.290
1551.6000, -37.293
1551.6200, -37.296
1551.6400, -37.298
1551.6600, -37.300
1551.6800, -37.305
1551.7000, -37.309
1551.7200, -37.313
1551.7400, -37.316
1551.7600, -37.319
1551.7800, -37.323
1551.8000, -37.324
1551.8200, -37.328
1551.8400, -37.329
1551.8600, -37.332
1551.8800, -37.334
1551.9000, -37.336
1551.9200, -37.340
1551.9400, -37.340
1551.9600, -37.343
1551.9800, -37.345
1552.0000, -37.347
1552.0200, -37.349
1552.0400, -37.351
1552.0600, -37.352
1552.0800, -37.356
1552.1000, -37.358
1552.1200, -37.358
1552.1400, -37.361
1552.1600, -37.361
1552.1800, -37.362
1552.2000, -37.362
1552.2200, -37.360
1552.2400, -37.363
1552.2600, -37.364
1552.2800, -37.365
1552.3000, -37.364
1552.3200, -37.366
1552.3400, -37.369
1552.3600, -37.369
1552.3800, -37.369
1552.4000, -37.370
1552.4200, -37.370
1552.4400, -37.371
1552.4600, -37.371
1552.4800, -37.371
1552.5000, -37.372
1552.5200, -37.374
1552.5400, -37.375
1552.5600, -37.377
1552.5800, -37.379
1552.6000, -37.380
1552.6200, -37.382
1552.6400, -37.385
1552.6600, -37.385
1552.6800, -37.388
1552.7000, -37.392
1552.7200, -37.395
1552.7400, -37.399
1552.7600, -37.404
1552.7800, -37.406
1552.8000, -37.408
1552.8200, -37.409
1552.8400, -37.412
1552.8600, -37.413
1552.8800, -37.414
1552.9000, -37.418
1552.9200, -37.419
1552.9400, -37.420
1552.9600, -37.423
1552.9800, -37.424
1553.0000, -37.427
1553.0200, -37.429
1553.0400, -37.430
1553.0600, -37.432
1553.0800, -37.436
1553.1000, -37.438
1553.1200, -37.438
1553.1400, -37.440
1553.1600, -37.441
1553.1800, -37.442
1553.2000, -37.443
1553.2200, -37.444
1553.2400, -37.446
1553.2600, -37.448
1553.2800, -37.449
1553.3000, -37.450
1553.3200, -37.452
1553.3400, -37.454
1553.3600, -37.454
1553.3800, -37.455
1553.4000, -37.457
1553.4200, -37.457
1553.4400, -37.460
1553.4600, -37.462
1553.4800, -37.462
1553.5000, -37.464
1553.5200, -37.465
1553.5400, -37.466
1553.5600, -37.467
1553.5800, -37.469
1553.6000, -37.469
1553.6200, -37.472
1553.6400, -37.473
1553.6600, -37.474
1553.6800, -37.475
1553.7000, -37.477
1553.7200, -37.476
1553.7400, -37.478
1553.7600, -37.478
1553.7800, -37.480
1553.8000, -37.479
1553.8200, -37.482
1553.8400, -37.482
1553.8600, -37.484
1553.8800, -37.486
1553.9000, -37.487
1553.9200, -37.488
1553.9400, -37.490
1553.9600, -37.492
1553.9800, -37.493
1554.0000, -37.493
1554.0200, -37.497
1554.0400, -37.499
1554.0600, -37.503
1554.0800, -37.506
1554.1000, -37.508
1554.1200, -37.510
1554.1400, -37.515
1554.1600, -37.517
1554.1800, -37.519
1554.2000, -37.520
1554.2200, -37.522
1554.2400, -37.522
1554.2600, -37.523
1554.2800, -37.524
1554.3000, -37.524
1554.3200, -37.525
1554.3400, -37.527
1554.3600, -37.527
1554.3800, -37.528
1554.4000, -37.528
1554.4200, -37.527
1554.4400, -37.529
1554.4600, -37.528
1554.4800, -37.526
1554.5000, -37.527
1554.5200, -37.527
1554.5400, -37.524
1554.5600, -37.526
1554.5800, -37.526
1554.6000, -37.525
1554.6200, -37.524
1554.6400, -37.524
1554.6600, -37.524
1554.6800, -37.524
1554.7000, -37.525
1554.7200, -37.525
1554.7400, -37.525
1554.7600, -37.526
1554.7800, -37.528
1554.8000, -37.527
1554.8200, -37.529
1554.8400, -37.529
1554.8600, -37.530
1554.8800, -37.530
1554.9000, -37.531
1554.9200, -37.532
1554.9400, -37.533
1554.9600, -37.534
1554.9800, -37.537
1555.0000, -37.538
1555.0200, -37.539
1555.0400, -37.539
1555.0600, -37.541
1555.0800, -37.542
1555.1000, -37.542
1555.1200, -37.544
1555.1400, -37.546
1555.1600, -37.548
1555.1800, -37.551
1555.2000, -37.555
1555.2200, -37.557
1555.2400, -37.560
1555.2600, -37.561
1555.2800, -37.562
1555.3000, -37.566
1555.3200, -37.567
1555.3400, -37.567
1555.3600, -37.568
1555.3800, -37.570
1555.4000, -37.568
1555.4200, -37.569
1555.4400, -37.571
1555.4600, -37.570
1555.4800, -37.571
1555.5000, -37.572
1555.5200, -37.574
1555.5400, -37.576
1555.5600, -37.576
1555.5800, -37.577
1555.6000, -37.581
1555.6200, -37.580
1555.6400, -37.581
1555.6600, -37.581
1555.6800, -37.581
1555.7000, -37.583
1555.7200, -37.586
1555.7400, -37.586
1555.7600, -37.587
1555.7800, -37.590
1555.8000, -37.591
1555.8200, -37.593
1555.8400, -37.594
1555.8600, -37.595
1555.8800, -37.597
1555.9000, -37.599
1555.9200, -37.601
1555.9400, -37.602
1555.9600, -37.604
1555.9800, -37.605
1556.0000, -37.605
1556.0200, -37.608
1556.0400, -37.608
1556.0600, -37.610
1556.0800, -37.616
1556.1000, -37.616
1556.1200, -37.619
1556.1400, -37.622
1556.1600, -37.624
1556.1800, -37.627
1556.2000, -37.628
1556.2200, -37.631
1556.2400, -37.633
1556.2600, -37.634
1556.2800, -37.638
1556.3000, -37.640
1556.3200, -37.643
1556.3400, -37.645
1556.3600, -37.648
1556.3800, -37.650
1556.4000, -37.654
1556.4200, -37.656
1556.4400, -37.658
1556.4600, -37.660
1556.4800, -37.662
1556.5000, -37.664
1556.5200, -37.667
1556.5400, -37.671
1556.5600, -37.673
1556.5800, -37.675
1556.6000, -37.679
1556.6200, -37.683
1556.6400, -37.686
1556.6600, -37.689
1556.6800, -37.692
1556.7000, -37.694
1556.7200, -37.697
1556.7400, -37.702
1556.7600, -37.704
1556.7800, -37.706
1556.8000, -37.710
1556.8200, -37.712
1556.8400, -37.714
1556.8600, -37.717
1556.8800, -37.721
1556.9000, -37.724
1556.9200, -37.728
1556.9400, -37.730
1556.9600, -37.732
1556.9800, -37.736
1557.0000, -37.738
1557.0200, -37.742
1557.0400, -37.745
1557.0600, -37.749
1557.0800, -37.753
1557.1000, -37.755
1557.1200, -37.757
1557.1400, -37.761
1557.1600, -37.763
1557.1800, -37.765
1557.2000, -37.766
1557.2200, -37.769
1557.2400, -37.772
1557.2600, -37.775
1557.2800, -37.777
1557.3000, -37.780
1557.3200, -37.784
1557.3400, -37.789
1557.3600, -37.794
1557.3800, -37.798
1557.4000, -37.803
1557.4200, -37.810
1557.4400, -37.813
1557.4600, -37.818
1557.4800, -37.824
1557.5000, -37.828
1557.5200, -37.834
1557.5400, -37.840
1557.5600, -37.845
1557.5800, -37.848
1557.6000, -37.855
1557.6200, -37.862
1557.6400, -37.866
1557.6600, -37.873
1557.6800, -37.878
1557.7000, -37.883
1557.7200, -37.889
1557.7400, -37.896
1557.7600, -37.901
1557.7800, -37.906
1557.8000, -37.912
1557.8200, -37.918
1557.8400, -37.924
1557.8600, -37.929
1557.8800, -37.933
1557.9000, -37.938
1557.9200, -37.944
1557.9400, -37.951
1557.9600, -37.958
1557.9800, -37.961
1558.0000, -37.967
1558.0200, -37.972
1558.0400, -37.978
1558.0600, -37.984
1558.0800, -37.989
1558.1000, -37.996
1558.1200, -38.000
1558.1400, -38.006
1558.1600, -38.014
1558.1800, -38.018
1558.2000, -38.025
1558.2200, -38.029
1558.2400, -38.037
1558.2600, -38.043
1558.2800, -38.047
1558.3000, -38.054
1558.3200, -38.060
1558.3400, -38.066
1558.3600, -38.072
1558.3800, -38.078
1558.4000, -38.085
1558.4200, -38.092
1558.4400, -38.098
1558.4600, -38.104
1558.4800, -38.111
1558.5000, -38.118
1558.5200, -38.125
1558.5400, -38.133
1558.5600, -38.139
1558.5800, -38.147
1558.6000, -38.154
1558.6200, -38.161
1558.6400, -38.168
1558.6600, -38.175
1558.6800, -38.183
1558.7000, -38.192
1558.7200, -38.200
1558.7400, -38.210
1558.7600, -38.219
1558.7800, -38.228
1558.8000, -38.237
1558.8200, -38.246
1558.8400, -38.253
1558.8600, -38.263
1558.8800, -38.271
1558.9000, -38.278
1558.9200, -38.287
1558.9400, -38.295
1558.9600, -38.303
1558.9800, -38.312
1559.0000, -38.321
1559.0200, -38.330
1559.0400, -38.340
1559.0600, -38.349
1559.0800, -38.357
1559.1000, -38.368
1559.1200, -38.375
1559.1400, -38.385
1559.1600, -38.392
1559.1800, -38.399
1559.2000, -38.409
1559.2200, -38.418
1559.2400, -38.427
1559.2600, -38.438
1559.2800, -38.447
1559.3000, -38.459
1559.3200, -38.468
1559.3400, -38.479
1559.3600, -38.488
1559.3800, -38.497
1559.4000, -38.506
1559.4200, -38.514
1559.4400, -38.526
1559.4600, -38.533
1559.4800, -38.544
1559.5000, -38.551
1559.5200, -38.561
1559.5400, -38.573
1559.5600, -38.583
1559.5800, -38.592
1559.6000, -38.601
1559.6200, -38.612
1559.6400, -38.621
1559.6600, -38.630
1559.6800, -38.639
1559.7000, -38.648
1559.7200, -38.657
1559.7400, -38.666
1559.7600, -38.675
1559.7800, -38.686
1559.8000, -38.697
1559.8200, -38.708
1559.8400, -38.719
1559.8600, -38.729
1559.8800, -38.741
1559.9000, -38.748
1559.9200, -38.760
1559.9400, -38.769
1559.9600, -38.781
1559.9800, -38.793
1560.0000, -38.804
1560.0200, -38.816
1560.0400, -38.828
1560.0600, -38.839
1560.0800, -38.853
1560.1000, -38.864
1560.1200, -38.873
1560.1400, -38.886
1560.1600, -38.898
1560.1800, -38.907
1560.2000, -38.919
1560.2200, -38.929
1560.2400, -38.940
1560.2600, -38.950
1560.2800, -38.963
1560.3000, -38.972
1560.3200, -38.982
1560.3400, -38.994
1560.3600, -39.004
1560.3800, -39.014
1560.4000, -39.024
1560.4200, -39.033
1560.4400, -39.045
1560.4600, -39.057
1560.4800, -39.066
1560.5000, -39.076
1560.5200, -39.087
1560.5400, -39.098
1560.5600, -39.111
1560.5800, -39.120
1560.6000, -39.133
1560.6200, -39.142
1560.6400, -39.152
1560.6600, -39.165
1560.6800, -39.175
1560.7000, -39.187
1560.7200, -39.198
1560.7400, -39.208
1560.7600, -39.219
1560.7800, -39.230
1560.8000, -39.241
1560.8200, -39.253
1560.8400, -39.265
1560.8600, -39.278
1560.8800, -39.290
1560.9000, -39.303
1560.9200, -39.316
1560.9400, -39.328
1560.9600, -39.341
1560.9800, -39.350
1561.0000, -39.363
1561.0200, -39.376
1561.0400, -39.387
1561.0600, -39.399
1561.0800, -39.413
1561.1000, -39.424
1561.1200, -39.437
1561.1400, -39.448
1561.1600, -39.462
1561.1800, -39.475
1561.2000, -39.488
1561.2200, -39.503
1561.2400, -39.517
1561.2600, -39.532
1561.2800, -39.545
1561.3000, -39.560
1561.3200, -39.575
1561.3400, -39.589
1561.3600, -39.604
1561.3800, -39.619
1561.4000, -39.632
1561.4200, -39.646
1561.4400, -39.660
1561.4600, -39.675
1561.4800, -39.690
1561.5000, -39.706
1561.5200, -39.721
1561.5400, -39.734
1561.5600, -39.747
1561.5800, -39.764
1561.6000, -39.778
1561.6200, -39.790
1561.6400, -39.806
1561.6600, -39.819
1561.6800, -39.836
1561.7000, -39.850
1561.7200, -39.864
1561.7400, -39.878
1561.7600, -39.893
1561.7800, -39.909
1561.8000, -39.927
1561.8200, -39.940
1561.8400, -39.958
1561.8600, -39.973
1561.8800, -39.989
1561.9000, -40.004
1561.9200, -40.017
1561.9400, -40.032
1561.9600, -40.047
1561.9800, -40.062
1562.0000, -40.077
1562.0200, -40.091
1562.0400, -40.105
1562.0600, -40.121
1562.0800, -40.137
1562.1000, -40.153
1562.1200, -40.168
1562.1400, -40.183
1562.1600, -40.198
1562.1800, -40.214
1562.2000, -40.228
1562.2200, -40.244
1562.2400, -40.258
1562.2600, -40.274
1562.2800, -40.291
1562.3000, -40.305
1562.3200, -40.321
1562.3400, -40.335
1562.3600, -40.350
1562.3800, -40.365
1562.4000, -40.382
1562.4200, -40.398
1562.4400, -40.414
1562.4600, -40.429
1562.4800, -40.444
1562.5000, -40.459
1562.5200, -40.475
1562.5400, -40.490
1562.5600, -40.507
1562.5800, -40.523
1562.6000, -40.540
1562.6200, -40.556
1562.6400, -40.573
1562.6600, -40.588
1562.6800, -40.606
1562.7000, -40.622
1562.7200, -40.639
1562.7400, -40.654
1562.7600, -40.671
1562.7800, -40.686
1562.8000, -40.701
1562.8200, -40.717
1562.8400, -40.734
1562.8600, -40.752
1562.8800, -40.769
1562.9000, -40.785
1562.9200, -40.802
1562.9400, -40.818
1562.9600, -40.834
1562.9800, -40.850
1563.0000, -40.865
1563.0200, -40.884
1563.0400, -40.899
1563.0600, -40.915
1563.0800, -40.933
1563.1000, -40.950
1563.1200, -40.965
1563.1400, -40.983
1563.1600, -40.999
1563.1800, -41.014
1563.2000, -41.032
1563.2200, -41.051
1563.2400, -41.066
1563.2600, -41.084
1563.2800, -41.100
1563.3000, -41.118
1563.3200, -41.134
1563.3400, -41.149
1563.3600, -41.167
1563.3800, -41.185
1563.4000, -41.201
1563.4200, -41.219
1563.4400, -41.239
1563.4600, -41.256
1563.4800, -41.272
1563.5000, -41.291
1563.5200, -41.307
1563.5400, -41.325
1563.5600, -41.341
1563.5800, -41.360
1563.6000, -41.377
1563.6200, -41.394
1563.6400, -41.413
1563.6600, -41.433
1563.6800, -41.450
1563.7000, -41.469
1563.7200, -41.488
1563.7400, -41.508
1563.7600, -41.524
1563.7800, -41.543
1563.8000, -41.562
1563.8200, -41.580
1563.8400, -41.598
1563.8600, -41.617
1563.8800, -41.635
1563.9000, -41.652
1563.9200, -41.669
1563.9400, -41.687
1563.9600, -41.707
1563.9800, -41.724
1564.0000, -41.740
1564.0200, -41.759
1564.0400, -41.776
1564.0600, -41.793
1564.0800, -41.810
1564.1000, -41.826
1564.1200, -41.844
1564.1400, -41.861
1564.1600, -41.877
1564.1800, -41.895
1564.2000, -41.911
1564.2200, -41.929
1564.2400, -41.948
1564.2600, -41.964
1564.2800, -41.983
1564.3000, -42.001
1564.3200, -42.020
1564.3400, -42.036
1564.3600, -42.054
1564.3800, -42.071
1564.4000, -42.091
1564.4200, -42.109
1564.4400, -42.127
1564.4600, -42.148
1564.4800, -42.164
1564.5000, -42.184
1564.5200, -42.205
1564.5400, -42.222
1564.5600, -42.241
1564.5800, -42.260
1564.6000, -42.279
1564.6200, -42.297
1564.6400, -42.316
1564.6600, -42.334
1564.6800, -42.353
1564.7000, -42.373
1564.7200, -42.391
1564.7400, -42.412
1564.7600, -42.429
1564.7800, -42.449
1564.8000, -42.468
1564.8200, -42.486
1564.8400, -42.506
1564.8600, -42.524
1564.8800, -42.544
1564.9000, -42.562
1564.9200, -42.582
1564.9400, -42.600
1564.9600, -42.621
1564.9800, -42.640
1565.0000, -42.660
1565.0200, -42.680
1565.0400, -42.700
1565.0600, -42.720
1565.0800, -42.739
1565.1000, -42.760
1565.1200, -42.779
1565.1400, -42.798
1565.1600, -42.817
1565.1800, -42.839
1565.2000, -42.857
1565.2200, -42.877
1565.2400, -42.898
1565.2600, -42.917
1565.2800, -42.936
1565.3000, -42.955
1565.3200, -42.975
1565.3400, -42.997
1565.3600, -43.013
1565.3800, -43.034
1565.4000, -43.053
1565.4200, -43.074
1565.4400, -43.091
1565.4600, -43.110
1565.4800, -43.130
1565.5000, -43.152
1565.5200, -43.171
1565.5400, -43.191
1565.5600, -43.210
1565.5800, -43.231
1565.6000, -43.249
1565.6200, -43.270
1565.6400, -43.289
1565.6600, -43.307
1565.6800, -43.328
1565.7000, -43.348
1565.7200, -43.366
1565.7400, -43.385
1565.7600, -43.406
1565.7800, -43.425
1565.8000, -43.445
1565.8200, -43.465
1565.8400, -43.483
1565.8600, -43.504
1565.8800, -43.521
1565.9000, -43.541
1565.9200, -43.561
1565.9400, -43.580
1565.9600, -43.603
1565.9800, -43.622
1566.0000, -43.642
1566.0200, -43.663
1566.0400, -43.682
1566.0600, -43.703
1566.0800, -43.722
1566.1000, -43.744
1566.1200, -43.762
1566.1400, -43.782
1566.1600, -43.803
1566.1800, -43.822
1566.2000, -43.841
1566.2200, -43.862
1566.2400, -43.881
1566.2600, -43.903
1566.2800, -43.923
1566.3000, -43.943
1566.3200, -43.962
1566.3400, -43.983
1566.3600, -44.001
1566.3800, -44.022
1566.4000, -44.043
1566.4200, -44.062
1566.4400, -44.084
1566.4600, -44.102
1566.4800, -44.120
1566.5000, -44.141
1566.5200, -44.162
1566.5400, -44.182
1566.5600, -44.202
1566.5800, -44.221
1566.6000, -44.241
1566.6200, -44.262
1566.6400, -44.282
1566.6600, -44.300
1566.6800, -44.321
1566.7000, -44.341
1566.7200, -44.362
1566.7400, -44.382
1566.7600, -44.404
1566.7800, -44.422
1566.8000, -44.443
1566.8200, -44.463
1566.8400, -44.484
1566.8600, -44.505
1566.8800, -44.525
1566.9000, -44.546
1566.9200, -44.564
1566.9400, -44.583
1566.9600, -44.605
1566.9800, -44.624
1567.0000, -44.643
1567.0200, -44.663
1567.0400, -44.686
1567.0600, -44.706
1567.0800, -44.725
1567.1000, -44.745
1567.1200, -44.766
1567.1400, -44.786
1567.1600, -44.807
1567.1800, -44.828
1567.2000, -44.846
1567.2200, -44.867
1567.2400, -44.885
1567.2600, -44.906
1567.2800, -44.928
1567.3000, -44.947
1567.3200, -44.964
1567.3400, -44.985
1567.3600, -45.005
1567.3800, -45.025
1567.4000, -45.046
1567.4200, -45.064
1567.4400, -45.083
1567.4600, -45.104
1567.4800, -45.124
1567.5000, -45.146
1567.5200, -45.167
1567.5400, -45.187
1567.5600, -45.210
1567.5800, -45.229
1567.6000, -45.249
1567.6200, -45.270
1567.6400, -45.290
1567.6600, -45.310
1567.6800, -45.329
1567.7000, -45.350
1567.7200, -45.372
1567.7400, -45.388
1567.7600, -45.408
1567.7800, -45.429
1567.8000, -45.449
1567.8200, -45.472
1567.8400, -45.489
1567.8600, -45.507
1567.8800, -45.529
1567.9000, -45.546
1567.9200, -45.568
1567.9400, -45.589
1567.9600, -45.608
1567.9800, -45.629
1568.0000, -45.652
1568.0200, -45.671
1568.0400, -45.689
1568.0600, -45.708
1568.0800, -45.728
1568.1000, -45.750
1568.1200, -45.770
1568.1400, -45.791
1568.1600, -45.810
1568.1800, -45.831
1568.2000, -45.852
1568.2200, -45.871
1568.2400, -45.892
1568.2600, -45.912
1568.2800, -45.934
1568.3000, -45.955
1568.3200, -45.976
1568.3400, -45.997
1568.3600, -46.017
1568.3800, -46.040
1568.4000, -46.057
1568.4200, -46.079
1568.4400, -46.099
1568.4600, -46.118
1568.4800, -46.138
1568.5000, -46.155
1568.5200, -46.175
1568.5400, -46.197
1568.5600, -46.215
1568.5800, -46.235
1568.6000, -46.256
1568.6200, -46.276
1568.6400, -46.295
1568.6600, -46.315
1568.6800, -46.335
1568.7000, -46.355
1568.7200, -46.375
1568.7400, -46.392
1568.7600, -46.415
1568.7800, -46.434
1568.8000, -46.451
1568.8200, -46.474
1568.8400, -46.494
1568.8600, -46.512
1568.8800, -46.532
1568.9000, -46.550
1568.9200, -46.572
1568.9400, -46.590
1568.9600, -46.611
1568.9800, -46.629
1569.0000, -46.652
1569.0200, -46.670
1569.0400, -46.692
1569.0600, -46.712
1569.0800, -46.734
1569.1000, -46.754
1569.1200, -46.772
1569.1400, -46.792
1569.1600, -46.811
1569.1800, -46.833
1569.2000, -46.851
1569.2200, -46.873
1569.2400, -46.890
1569.2600, -46.909
1569.2800, -46.931
1569.3000, -46.949
1569.3200, -46.969
1569.3400, -46.988
1569.3600, -47.008
1569.3800, -47.028
1569.4000, -47.049
1569.4200, -47.066
1569.4400, -47.086
1569.4600, -47.106
1569.4800, -47.127
1569.5000, -47.147
1569.5200, -47.165
1569.5400, -47.184
1569.5600, -47.204
1569.5800, -47.223
1569.6000, -47.241
1569.6200, -47.263
1569.6400, -47.279
1569.6600, -47.301
1569.6800, -47.321
1569.7000, -47.340
1569.7200, -47.361
1569.7400, -47.379
1569.7600, -47.397
1569.7800, -47.419
1569.8000, -47.438
1569.8200, -47.457
1569.8400, -47.476
1569.8600, -47.497
1569.8800, -47.516
1569.9000, -47.535
1569.9200, -47.556
1569.9400, -47.574
1569.9600, -47.592
1569.9800, -47.613
1570.0000, -47.634
1570.0200, -47.653
1570.0400, -47.671
1570.0600, -47.690
1570.0800, -47.706
1570.1000, -47.728
1570.1200, -47.746
1570.1400, -47.767
1570.1600, -47.786
1570.1800, -47.804
1570.2000, -47.824
1570.2200, -47.844
1570.2400, -47.863
1570.2600, -47.884
1570.2800, -47.903
1570.3000, -47.921
1570.3200, -47.938
1570.3400, -47.958
1570.3600, -47.975
1570.3800, -47.996
1570.4000, -48.013
1570.4200, -48.035
1570.4400, -48.053
1570.4600, -48.072
1570.4800, -48.091
1570.5000, -48.112
1570.5200, -48.133
1570.5400, -48.152
1570.5600, -48.172
1570.5800, -48.194
1570.6000, -48.210
1570.6200, -48.228
1570.6400, -48.250
1570.6600, -48.268
1570.6800, -48.288
1570.7000, -48.308
1570.7200, -48.328
1570.7400, -48.344
1570.7600, -48.362
1570.7800, -48.383
1570.8000, -48.403
1570.8200, -48.423
1570.8400, -48.441
1570.8600, -48.461
1570.8800, -48.479
1570.9000, -48.496
1570.9200, -48.514
1570.9400, -48.534
1570.9600, -48.552
1570.9800, -48.573
1571.0000, -48.593
1571.0200, -48.610
1571.0400, -48.624
1571.0600, -48.648
1571.0800, -48.660
1571.1000, -48.680
1571.1200, -48.696
1571.1400, -48.719
1571.1600, -48.738
1571.1800, -48.755
1571.2000, -48.769
1571.2200, -48.788
1571.2400, -48.807
1571.2600, -48.828
1571.2800, -48.847
1571.3000, -48.867
1571.3200, -48.882
1571.3400, -48.904
1571.3600, -48.921
1571.3800, -48.941
1571.4000, -48.959
1571.4200, -48.978
1571.4400, -48.996
1571.4600, -49.013
1571.4800, -49.030
1571.5000, -49.050
1571.5200, -49.075
1571.5400, -49.088
1571.5600, -49.107
1571.5800, -49.123
1571.6000, -49.149
1571.6200, -49.167
1571.6400, -49.185
1571.6600, -49.197
1571.6800, -49.218
1571.7000, -49.237
1571.7200, -49.253
1571.7400, -49.273
1571.7600, -49.287
1571.7800, -49.310
1571.8000, -49.328
1571.8200, -49.339
1571.8400, -49.360
1571.8600, -49.381
1571.8800, -49.396
1571.9000, -49.413
1571.9200, -49.435
1571.9400, -49.449
1571.9600, -49.470
1571.9800, -49.486
1572.0000, -49.501
1572.0200, -49.516
1572.0400, -49.539
1572.0600, -49.559
1572.0800, -49.571
1572.1000, -49.590
1572.1200, -49.608
1572.1400, -49.628
1572.1600, -49.646
1572.1800, -49.665
1572.2000, -49.681
1572.2200, -49.695
1572.2400, -49.712
1572.2600, -49.729
1572.2800, -49.750
1572.3000, -49.768
1572.3200, -49.785
1572.3400, -49.800
1572.3600, -49.819
1572.3800, -49.838
1572.4000, -49.856
1572.4200, -49.872
1572.4400, -49.890
1572.4600, -49.905
1572.4800, -49.922
1572.5000, -49.940
1572.5200, -49.959
1572.5400, -49.974
1572.5600, -49.993
1572.5800, -50.009
1572.6000, -50.024
1572.6200, -50.043
1572.6400, -50.061
1572.6600, -50.078
1572.6800, -50.094
1572.7000, -50.111
1572.7200, -50.130
1572.7400, -50.142
1572.7600, -50.160
1572.7800, -50.175
1572.8000, -50.196
1572.8200, -50.214
1572.8400, -50.231
1572.8600, -50.249
1572.8800, -50.264
1572.9000, -50.282
1572.9200, -50.300
1572.9400, -50.316
1572.9600, -50.332
1572.9800, -50.348
1573.0000, -50.368
1573.0200, -50.384
1573.0400, -50.398
1573.0600, -50.412
1573.0800, -50.430
1573.1000, -50.450
1573.1200, -50.466
1573.1400, -50.479
1573.1600, -50.498
1573.1800, -50.515
1573.2000, -50.531
1573.2200, -50.549
1573.2400, -50.563
1573.2600, -50.581
1573.2800, -50.595
1573.3000, -50.613
1573.3200, -50.628
1573.3400, -50.645
1573.3600, -50.661
1573.3800, -50.682
1573.4000, -50.696
1573.4200, -50.711
1573.4400, -50.727
1573.4600, -50.742
1573.4800, -50.758
1573.5000, -50.774
1573.5200, -50.788
1573.5400, -50.805
1573.5600, -50.821
1573.5800, -50.839
1573.6000, -50.852
1573.6200, -50.872
1573.6400, -50.884
1573.6600, -50.903
1573.6800, -50.915
1573.7000, -50.936
1573.7200, -50.951
1573.7400, -50.963
1573.7600, -50.983
1573.7800, -51.000
1573.8000, -51.014
1573.8200, -51.027
1573.8400, -51.044
1573.8600, -51.058
1573.8800, -51.076
1573.9000, -51.090
1573.9200, -51.106
1573.9400, -51.122
1573.9600, -51.139
1573.9800, -51.151
1574.0000, -51.167
1574.0200, -51.184
1574.0400, -51.197
1574.0600, -51.214
1574.0800, -51.226
1574.1000, -51.245
1574.1200, -51.259
1574.1400, -51.274
1574.1600, -51.290
1574.1800, -51.306
1574.2000, -51.321
1574.2200, -51.338
1574.2400, -51.349
1574.2600, -51.360
1574.2800, -51.378
1574.3000, -51.393
1574.3200, -51.413
1574.3400, -51.424
1574.3600, -51.443
1574.3800, -51.458
1574.4000, -51.467
1574.4200, -51.487
1574.4400, -51.501
1574.4600, -51.519
1574.4800, -51.533
1574.5000, -51.552
1574.5200, -51.565
1574.5400, -51.577
1574.5600, -51.593
1574.5800, -51.607
1574.6000, -51.623
1574.6200, -51.638
1574.6400, -51.653
1574.6600, -51.669
1574.6800, -51.685
1574.7000, -51.700
1574.7200, -51.709
1574.7400, -51.723
1574.7600, -51.741
1574.7800, -51.755
1574.8000, -51.771
1574.8200, -51.784
1574.8400, -51.802
1574.8600, -51.816
1574.8800, -51.828
1574.9000, -51.842
1574.9200, -51.860
1574.9400, -51.873
1574.9600, -51.886
1574.9800, -51.904
1575.0000, -51.915
1575.0200, -51.929
1575.0400, -51.947
1575.0600, -51.960
1575.0800, -51.978
1575.1000, -51.984
1575.1200, -51.999
1575.1400, -52.010
1575.1600, -52.029
1575.1800, -52.041
1575.2000, -52.053
1575.2200, -52.074
1575.2400, -52.087
1575.2600, -52.103
1575.2800, -52.116
1575.3000, -52.125
1575.3200, -52.142
1575.3400, -52.155
1575.3600, -52.169
1575.3800, -52.183
1575.4000, -52.196
1575.4200, -52.211
1575.4400, -52.223
1575.4600, -52.235
1575.4800, -52.250
1575.5000, -52.262
1575.5200, -52.278
1575.5400, -52.292
1575.5600, -52.305
1575.5800, -52.317
1575.6000, -52.328
1575.6200, -52.343
1575.6400, -52.357
1575.6600, -52.369
1575.6800, -52.385
1575.7000, -52.396
1575.7200, -52.410
1575.7400, -52.424
1575.7600, -52.441
1575.7800, -52.455
1575.8000, -52.465
1575.8200, -52.479
1575.8400, -52.492
1575.8600, -52.506
1575.8800, -52.518
1575.9000, -52.535
1575.9200, -52.546
1575.9400, -52.556
1575.9600, -52.571
1575.9800, -52.587
1576.0000, -52.601
1576.0200, -52.611
1576.0400, -52.624
1576.0600, -52.638
1576.0800, -52.651
1576.1000, -52.667
1576.1200, -52.670
1576.1400, -52.690
1576.1600, -52.705
1576.1800, -52.712
1576.2000, -52.726
1576.2200, -52.744
1576.2400, -52.754
1576.2600, -52.767
1576.2800, -52.776
1576.3000, -52.793
1576.3200, -52.809
1576.3400, -52.815
1576.3600, -52.825
1576.3800, -52.838
1576.4000, -52.858
1576.4200, -52.869
1576.4400, -52.882
1576.4600, -52.888
1576.4800, -52.901
1576.5000, -52.914
1576.5200, -52.926
1576.5400, -52.937
1576.5600, -52.949
1576.5800, -52.957
1576.6000, -52.974
1576.6200, -52.986
1576.6400, -53.004
1576.6600, -53.014
1576.6800, -53.022
1576.7000, -53.036
1576.7200, -53.051
1576.7400, -53.063
1576.7600, -53.072
1576.7800, -53.083
1576.8000, -53.097
1576.8200, -53.108
1576.8400, -53.117
1576.8600, -53.130
1576.8800, -53.143
1576.9000, -53.156
1576.9200, -53.163
1576.9400, -53.182
1576.9600, -53.190
1576.9800, -53.203
1577.0000, -53.214
1577.0200, -53.223
1577.0400, -53.234
1577.0600, -53.249
1577.0800, -53.260
1577.1000, -53.275
1577.1200, -53.285
1577.1400, -53.292
1577.1600, -53.306
1577.1800, -53.317
1577.2000, -53.326
1577.2200, -53.339
1577.2400, -53.352
1577.2600, -53.366
1577.2800, -53.373
1577.3000, -53.390
1577.3200, -53.397
1577.3400, -53.404
1577.3600, -53.427
1577.3800, -53.431
1577.4000, -53.446
1577.4200, -53.453
1577.4400, -53.469
1577.4600, -53.474
1577.4800, -53.491
1577.5000, -53.501
1577.5200, -53.519
1577.5400, -53.527
1577.5600, -53.539
1577.5800, -53.548
1577.6000, -53.561
1577.6200, -53.581
1577.6400, -53.579
1577.6600, -53.590
1577.6800, -53.607
1577.7000, -53.615
1577.7200, -53.624
1577.7400, -53.643
1577.7600, -53.654
1577.7800, -53.658
1577.8000, -53.673
1577.8200, -53.687
1577.8400, -53.690
1577.8600, -53.700
1577.8800, -53.716
1577.9000, -53.725
1577.9200, -53.731
1577.9400, -53.742
1577.9600, -53.759
1577.9800, -53.763
1578.0000, -53.782
1578.0200, -53.789
1578.0400, -53.801
1578.0600, -53.813
1578.0800, -53.818
1578.1000, -53.834
1578.1200, -53.846
1578.1400, -53.856
1578.1600, -53.868
1578.1800, -53.872
1578.2000, -53.883
1578.2200, -53.901
1578.2400, -53.909
1578.2600, -53.918
1578.2800, -53.929
1578.3000, -53.936
1578.3200, -53.950
1578.3400, -53.956
1578.3600, -53.970
1578.3800, -53.982
1578.4000, -53.990
1578.4200, -53.998
1578.4400, -54.010
1578.4600, -54.023
1578.4800, -54.034
1578.5000, -54.044
1578.5200, -54.053
1578.5400, -54.066
1578.5600, -54.073
1578.5800, -54.084
1578.6000, -54.098
1578.6200, -54.106
1578.6400, -54.120
1578.6600, -54.125
1578.6800, -54.140
1578.7000, -54.151
1578.7200, -54.157
1578.7400, -54.170
1578.7600, -54.179
1578.7800, -54.184
1578.8000, -54.201
1578.8200, -54.217
1578.8400, -54.217
1578.8600, -54.231
1578.8800, -54.236
1578.9000, -54.240
1578.9200, -54.254
1578.9400, -54.263
1578.9600, -54.278
1578.9800, -54.289
1579.0000, -54.296
1579.0200, -54.314
1579.0400, -54.322
1579.0600, -54.322
1579.0800, -54.338
1579.1000, -54.349
1579.1200, -54.360
1579.1400, -54.366
1579.1600, -54.380
1579.1800, -54.387
1579.2000, -54.400
1579.2200, -54.402
1579.2400, -54.412
1579.2600, -54.432
1579.2800, -54.437
1579.3000, -54.447
1579.3200, -54.453
1579.3400, -54.464
1579.3600, -54.469
1579.3800, -54.486
1579.4000, -54.488
1579.4200, -54.503
1579.4400, -54.520
1579.4600, -54.527
1579.4800, -54.532
1579.5000, -54.538
1579.5200, -54.545
1579.5400, -54.555
1579.5600, -54.569
1579.5800, -54.577
1579.6000, -54.584
1579.6200, -54.592
1579.6400, -54.603
1579.6600, -54.617
1579.6800, -54.629
1579.7000, -54.632
1579.7200, -54.653
1579.7400, -54.649
1579.7600, -54.664
1579.7800, -54.670
1579.8000, -54.681
1579.8200, -54.688
1579.8400, -54.702
1579.8600, -54.704
1579.8800, -54.721
1579.9000, -54.721
1579.9200, -54.741
1579.9400, -54.749
1579.9600, -54.758
1579.9800, -54.762
1580.0000, -54.783
1580.0200, -54.781
1580.0400, -54.794
1580.0600, -54.802
1580.0800, -54.809
1580.1000, -54.820
1580.1200, -54.825
1580.1400, -54.830
1580.1600, -54.841
1580.1800, -54.853
1580.2000, -54.861
1580.2200, -54.875
1580.2400, -54.876
1580.2600, -54.885
1580.2800, -54.898
1580.3000, -54.902
1580.3200, -54.908
1580.3400, -54.922
1580.3600, -54.930
1580.3800, -54.941
1580.4000, -54.942
1580.4200, -54.953
1580.4400, -54.967
1580.4600, -54.973
1580.4800, -54.979
1580.5000, -54.994
1580.5200, -54.998
1580.5400, -55.006
1580.5600, -55.010
1580.5800, -55.033
1580.6000, -55.029
1580.6200, -55.037
1580.6400, -55.044
1580.6600, -55.053
1580.6800, -55.069
1580.7000, -55.070
1580.7200, -55.081
1580.7400, -55.087
1580.7600, -55.098
1580.7800, -55.105
1580.8000, -55.115
1580.8200, -55.133
1580.8400, -55.129
1580.8600, -55.141
1580.8800, -55.149
1580.9000, -55.149
1580.9200, -55.163
1580.9400, -55.168
1580.9600, -55.182
1580.9800, -55.199
1581.0000, -55.203
1581.0200, -55.208
1581.0400, -55.214
1581.0600, -55.222
1581.0800, -55.229
1581.1000, -55.238
1581.1200, -55.248
1581.1400, -55.257
1581.1600, -55.262
1581.1800, -55.270
1581.2000, -55.269
1581.2200, -55.285
1581.2400, -55.296
1581.2600, -55.305
1581.2800, -55.316
1581.3000, -55.318
1581.3200, -55.319
1581.3400, -55.327
1581.3600, -55.337
1581.3800, -55.357
1581.4000, -55.359
1581.4200, -55.352
1581.4400, -55.368
1581.4600, -55.383
1581.4800, -55.381
1581.5000, -55.395
1581.5200, -55.394
1581.5400, -55.410
1581.5600, -55.420
1581.5800, -55.426
1581.6000, -55.437
1581.6200, -55.445
1581.6400, -55.450
1581.6600, -55.458
1581.6800, -55.458
1581.7000, -55.473
1581.7200, -55.477
1581.7400, -55.489
1581.7600, -55.495
1581.7800, -55.497
1581.8000, -55.513
1581.8200, -55.501
1581.8400, -55.525
1581.8600, -55.533
1581.8800, -55.544
1581.9000, -55.544
1581.9200, -55.556
1581.9400, -55.556
1581.9600, -55.569
1581.9800, -55.573
1582.0000, -55.588
1582.0200, -55.595
1582.0400, -55.608
1582.0600, -55.609
1582.0800, -55.614
1582.1000, -55.624
1582.1200, -55.636
1582.1400, -55.637
1582.1600, -55.644
1582.1800, -55.648
1582.2000, -55.659
1582.2200, -55.666
1582.2400, -55.671
1582.2600, -55.680
1582.2800, -55.689
1582.3000, -55.699
1582.3200, -55.700
1582.3400, -55.712
1582.3600, -55.718
1582.3800, -55.715
1582.4000, -55.728
1582.4200, -55.729
1582.4400, -55.739
1582.4600, -55.750
1582.4800, -55.752
1582.5000, -55.759
1582.5200, -55.764
1582.5400, -55.777
1582.5600, -55.781
1582.5800, -55.794
1582.6000, -55.794
1582.6200, -55.810
1582.6400, -55.815
1582.6600, -55.824
1582.6800, -55.826
1582.7000, -55.836
1582.7200, -55.843
1582.7400, -55.847
1582.7600, -55.859
1582.7800, -55.873
1582.8000, -55.864
1582.8200, -55.877
1582.8400, -55.878
1582.8600, -55.891
1582.8800, -55.902
1582.9000, -55.910
1582.9200, -55.905
1582.9400, -55.918
1582.9600, -55.921
1582.9800, -55.921
1583.0000, -55.934
1583.0200, -55.953
1583.0400, -55.955
1583.0600, -55.961
1583.0800, -55.962
1583.1000, -55.965
1583.1200, -55.987
1583.1400, -55.978
1583.1600, -55.987
1583.1800, -56.001
1583.2000, -56.006
1583.2200, -56.012
1583.2400, -56.022
1583.2600, -56.024
1583.2800, -56.024
1583.3000, -56.035
1583.3200, -56.043
1583.3400, -56.049
1583.3600, -56.063
1583.3800, -56.062
1583.4000, -56.085
1583.4200, -56.077
1583.4400, -56.092
1583.4600, -56.095
1583.4800, -56.100
1583.5000, -56.112
1583.5200, -56.105
1583.5400, -56.123
1583.5600, -56.124
1583.5800, -56.137
1583.6000, -56.142
1583.6200, -56.145
1583.6400, -56.161
1583.6600, -56.162
1583.6800, -56.167
1583.7000, -56.161
1583.7200, -56.183
1583.7400, -56.197
1583.7600, -56.202
1583.7800, -56.203
1583.8000, -56.204
1583.8200, -56.215
1583.8400, -56.219
1583.8600, -56.219
1583.8800, -56.230
1583.9000, -56.246
1583.9200, -56.246
1583.9400, -56.251
1583.9600, -56.260
1583.9800, -56.260
1584.0000, -56.270
1584.0200, -56.286
1584.0400, -56.286
1584.0600, -56.291
1584.0800, -56.298
1584.1000, -56.305
1584.1200, -56.304
1584.1400, -56.316
1584.1600, -56.324
1584.1800, -56.328
1584.2000, -56.336
1584.2200, -56.338
1584.2400, -56.343
1584.2600, -56.354
1584.2800, -56.351
1584.3000, -56.368
1584.3200, -56.373
1584.3400, -56.375
1584.3600, -56.383
1584.3800, -56.390
1584.4000, -56.385
1584.4200, -56.397
1584.4400, -56.404
1584.4600, -56.407
1584.4800, -56.421
1584.5000, -56.416
1584.5200, -56.435
1584.5400, -56.431
1584.5600, -56.435
1584.5800, -56.440
1584.6000, -56.438
1584.6200, -56.453
1584.6400, -56.454
1584.6600, -56.466
1584.6800, -56.480
1584.7000, -56.479
1584.7200, -56.490
1584.7400, -56.489
1584.7600, -56.498
1584.7800, -56.499
1584.8000, -56.501
1584.8200, -56.524
1584.8400, -56.526
1584.8600, -56.512
1584.8800, -56.531
1584.9000, -56.539
1584.9200, -56.556
1584.9400, -56.544
1584.9600, -56.554
1584.9800, -56.558
1585.0000, -56.569
1585.0200, -56.567
1585.0400, -56.572
1585.0600, -56.578
1585.0800, -56.584
1585.1000, -56.598
1585.1200, -56.589
1585.1400, -56.608
1585.1600, -56.602
1585.1800, -56.624
1585.2000, -56.610
1585.2200, -56.626
1585.2400, -56.620
1585.2600, -56.633
1585.2800, -56.648
1585.3000, -56.658
1585.3200, -56.645
1585.3400, -56.665
1585.3600, -56.675
1585.3800, -56.668
1585.4000, -56.674
1585.4200, -56.686
1585.4400, -56.694
1585.4600, -56.693
1585.4800, -56.706
1585.5000, -56.707
1585.5200, -56.711
1585.5400, -56.714
1585.5600, -56.731
1585.5800, -56.728
1585.6000, -56.732
1585.6200, -56.742
1585.6400, -56.749
1585.6600, -56.768
1585.6800, -56.757
1585.7000, -56.765
1585.7200, -56.770
1585.7400, -56.773
1585.7600, -56.778
1585.7800, -56.774
1585.8000, -56.803
1585.8200, -56.806
1585.8400, -56.806
1585.8600, -56.804
1585.8800, -56.818
1585.9000, -56.813
1585.9200, -56.810
1585.9400, -56.843
1585.9600, -56.834
1585.9800, -56.845
1586.0000, -56.842
1586.0200, -56.846
1586.0400, -56.854
1586.0600, -56.855
1586.0800, -56.872
1586.1000, -56.864
1586.1200, -56.876
1586.1400, -56.872
1586.1600, -56.888
1586.1800, -56.897
1586.2000, -56.904
1586.2200, -56.890
1586.2400, -56.915
1586.2600, -56.915
1586.2800, -56.920
1586.3000, -56.928
1586.3200, -56.925
1586.3400, -56.940
1586.3600, -56.937
1586.3800, -56.941
1586.4000, -56.946
1586.4200, -56.956
1586.4400, -56.966
1586.4600, -56.969
1586.4800, -56.961
1586.5000, -56.972
1586.5200, -56.980
1586.5400, -56.996
1586.5600, -56.999
1586.5800, -56.992
1586.6000, -56.999
1586.6200, -57.016
1586.6400, -57.005
1586.6600, -57.019
1586.6800, -57.022
1586.7000, -57.032
1586.7200, -57.029
1586.7400, -57.028
1586.7600, -57.041
1586.7800, -57.038
1586.8000, -57.053
1586.8200, -57.049
1586.8400, -57.050
1586.8600, -57.057
1586.8800, -57.055
1586.9000, -57.062
1586.9200, -57.068
1586.9400, -57.070
1586.9600, -57.082
1586.9800, -57.089
1587.0000, -57.085
1587.0200, -57.104
1587.0400, -57.097
1587.0600, -57.106
1587.0800, -57.115
1587.1000, -57.111
1587.1200, -57.118
1587.1400, -57.135
1587.1600, -57.140
1587.1800, -57.138
1587.2000, -57.134
1587.2200, -57.156
1587.2400, -57.157
1587.2600, -57.161
1587.2800, -57.166
1587.3000, -57.158
1587.3200, -57.169
1587.3400, -57.181
1587.3600, -57.169
1587.3800, -57.178
1587.4000, -57.197
1587.4200, -57.206
1587.4400, -57.207
1587.4600, -57.219
1587.4800, -57.216
1587.5000, -57.204
1587.5200, -57.207
1587.5400, -57.233
1587.5600, -57.238
1587.5800, -57.241
1587.6000, -57.243
1587.6200, -57.260
1587.6400, -57.253
1587.6600, -57.250
1587.6800, -57.270
1587.7000, -57.269
1587.7200, -57.281
1587.7400, -57.278
1587.7600, -57.279
1587.7800, -57.303
1587.8000, -57.287
1587.8200, -57.300
1587.8400, -57.299
1587.8600, -57.302
1587.8800, -57.323
1587.9000, -57.322
1587.9200, -57.321
1587.9400, -57.327
1587.9600, -57.340
1587.9800, -57.337
1588.0000, -57.350
1588.0200, -57.340
1588.0400, -57.358
1588.0600, -57.353
1588.0800, -57.365
1588.1000, -57.362
1588.1200, -57.367
1588.1400, -57.372
1588.1600, -57.377
1588.1800, -57.389
1588.2000, -57.396
1588.2200, -57.382
1588.2400, -57.395
1588.2600, -57.405
1588.2800, -57.410
1588.3000, -57.412
1588.3200, -57.418
1588.3400, -57.418
1588.3600, -57.423
1588.3800, -57.427
1588.4000, -57.438
1588.4200, -57.441
1588.4400, -57.433
1588.4600, -57.444
1588.4800, -57.458
1588.5000, -57.456
1588.5200, -57.473
1588.5400, -57.466
1588.5600, -57.470
1588.5800, -57.477
1588.6000, -57.477
1588.6200, -57.492
1588.6400, -57.495
1588.6600, -57.493
1588.6800, -57.503
1588.7000, -57.501
1588.7200, -57.503
1588.7400, -57.521
1588.7600, -57.520
1588.7800, -57.526
1588.8000, -57.520
1588.8200, -57.534
1588.8400, -57.541
1588.8600, -57.550
1588.8800, -57.544
1588.9000, -57.560
1588.9200, -57.559
1588.9400, -57.564
1588.9600, -57.572
1588.9800, -57.571
1589.0000, -57.567
1589.0200, -57.575
1589.0400, -57.580
1589.0600, -57.598
1589.0800, -57.595
1589.1000, -57.600
1589.1200, -57.605
1589.1400, -57.594
1589.1600, -57.608
1589.1800, -57.613
1589.2000, -57.617
1589.2200, -57.627
1589.2400, -57.630
1589.2600, -57.637
1589.2800, -57.639
1589.3000, -57.649
1589.3200, -57.660
1589.3400, -57.655
1589.3600, -57.643
1589.3800, -57.668
1589.4000, -57.661
1589.4200, -57.669
1589.4400, -57.683
1589.4600, -57.672
1589.4800, -57.696
1589.5000, -57.689
1589.5200, -57.695
1589.5400, -57.700
1589.5600, -57.713
1589.5800, -57.709
1589.6000, -57.712
1589.6200, -57.717
1589.6400, -57.726
1589.6600, -57.738
1589.6800, -57.725
1589.7000, -57.732
1589.7200, -57.739
1589.7400, -57.736
1589.7600, -57.750
1589.7800, -57.751
1589.8000, -57.765
1589.8200, -57.765
1589.8400, -57.762
1589.8600, -57.771
1589.8800, -57.773
1589.9000, -57.781
1589.9200, -57.787
1589.9400, -57.784
1589.9600, -57.788
1589.9800, -57.797
1590.0000, -57.795
1590.0200, -57.806
1590.0400, -57.808
1590.0600, -57.821
1590.0800, -57.811
1590.1000, -57.819
1590.1200, -57.833
1590.1400, -57.840
1590.1600, -57.841
1590.1800, -57.834
1590.2000, -57.842
1590.2200, -57.848
1590.2400, -57.862
1590.2600, -57.867
1590.2800, -57.865
1590.3000, -57.877
1590.3200, -57.879
1590.3400, -57.895
1590.3600, -57.882
1590.3800, -57.890
1590.4000, -57.894
1590.4200, -57.907
1590.4400, -57.897
1590.4600, -57.918
1590.4800, -57.906
1590.5000, -57.921
1590.5200, -57.916
1590.5400, -57.936
1590.5600, -57.938
1590.5800, -57.937
1590.6000, -57.937
1590.6200, -57.945
1590.6400, -57.946
1590.6600, -57.945
1590.6800, -57.964
1590.7000, -57.974
1590.7200, -57.973
1590.7400, -57.959
1590.7600, -57.978
1590.7800, -57.969
1590.8000, -57.992
1590.8200, -57.991
1590.8400, -57.982
1590.8600, -57.995
1590.8800, -58.002
1590.9000, -58.004
1590.9200, -58.013
1590.9400, -58.016
1590.9600, -58.008
1590.9800, -58.037
1591.0000, -58.027
1591.0200, -58.028
1591.0400, -58.040
1591.0600, -58.031
1591.0800, -58.044
1591.1000, -58.063
1591.1200, -58.042
1591.1400, -58.061
1591.1600, -58.057
1591.1800, -58.082
1591.2000, -58.068
1591.2200, -58.073
1591.2400, -58.089
1591.2600, -58.093
1591.2800, -58.086
1591.3000, -58.098
1591.3200, -58.092
1591.3400, -58.093
1591.3600, -58.110
1591.3800, -58.105
1591.4000, -58.118
1591.4200, -58.121
1591.4400, -58.129
1591.4600, -58.130
1591.4800, -58.126
1591.5000, -58.140
1591.5200, -58.138
1591.5400, -58.153
1591.5600, -58.156
1591.5800, -58.156
1591.6000, -58.161
1591.6200, -58.165
1591.6400, -58.174
1591.6600, -58.176
1591.6800, -58.183
1591.7000, -58.173
1591.7200, -58.201
1591.7400, -58.190
1591.7600, -58.201
1591.7800, -58.200
1591.8000, -58.201
1591.8200, -58.206
1591.8400, -58.199
1591.8600, -58.226
1591.8800, -58.233
1591.9000, -58.229
1591.9200, -58.237
1591.9400, -58.225
1591.9600, -58.250
1591.9800, -58.236
1592.0000, -58.258
1592.0200, -58.252
1592.0400, -58.253
1592.0600, -58.261
1592.0800, -58.265
1592.1000, -58.271
1592.1200, -58.278
1592.1400, -58.268
1592.1600, -58.286
1592.1800, -58.298
1592.2000, -58.300
1592.2200, -58.296
1592.2400, -58.306
1592.2600, -58.307
1592.2800, -58.307
1592.3000, -58.310
1592.3200, -58.318
1592.3400, -58.321
1592.3600, -58.328
1592.3800, -58.329
1592.4000, -58.334
1592.4200, -58.344
1592.4400, -58.345
1592.4600, -58.352
1592.4800, -58.359
1592.5000, -58.357
1592.5200, -58.373
1592.5400, -58.378
1592.5600, -58.369
1592.5800, -58.370
1592.6000, -58.375
1592.6200, -58.391
1592.6400, -58.386
1592.6600, -58.402
1592.6800, -58.403
1592.7000, -58.397
1592.7200, -58.391
1592.7400, -58.404
1592.7600, -58.418
1592.7800, -58.424
1592.8000, -58.421
1592.8200, -58.429
1592.8400, -58.426
1592.8600, -58.423
1592.8800, -58.432
1592.9000, -58.472
1592.9200, -58.426
1592.9400, -58.464
1592.9600, -58.454
1592.9800, -58.466
1593.0000, -58.472
1593.0200, -58.474
1593.0400, -58.470
1593.0600, -58.480
1593.0800, -58.490
1593.1000, -58.491
1593.1200, -58.479
1593.1400, -58.500
1593.1600, -58.509
1593.1800, -58.503
1593.2000, -58.510
1593.2200, -58.501
1593.2400, -58.502
1593.2600, -58.507
1593.2800, -58.513
1593.3000, -58.534
1593.3200, -58.527
1593.3400, -58.528
1593.3600, -58.523
1593.3800, -58.556
1593.4000, -58.538
1593.4200, -58.549
1593.4400, -58.551
1593.4600, -58.567
1593.4800, -58.556
1593.5000, -58.583
1593.5200, -58.571
1593.5400, -58.563
1593.5600, -58.572
1593.5800, -58.583
1593.6000, -58.606
1593.6200, -58.599
1593.6400, -58.593
1593.6600, -58.588
1593.6800, -58.615
1593.7000, -58.607
1593.7200, -58.596
1593.7400, -58.620
1593.7600, -58.614
1593.7800, -58.611
1593.8000, -58.628
1593.8200, -58.621
1593.8400, -58.627
1593.8600, -58.647
1593.8800, -58.648
1593.9000, -58.644
1593.9200, -58.658
1593.9400, -58.650
1593.9600, -58.657
1593.9800, -58.653
1594.0000, -58.673
1594.0200, -58.666
1594.0400, -58.671
1594.0600, -58.678
1594.0800, -58.683
1594.1000, -58.707
1594.1200, -58.682
1594.1400, -58.689
1594.1600, -58.694
1594.1800, -58.718
1594.2000, -58.710
1594.2200, -58.716
1594.2400, -58.713
1594.2600, -58.706
1594.2800, -58.724
1594.3000, -58.719
1594.3200, -58.724
1594.3400, -58.741
1594.3600, -58.738
1594.3800, -58.741
1594.4000, -58.760
1594.4200, -58.758
1594.4400, -58.774
1594.4600, -58.783
1594.4800, -58.768
1594.5000, -58.756
1594.5200, -58.770
1594.5400, -58.761
1594.5600, -58.771
1594.5800, -58.791
1594.6000, -58.794
1594.6200, -58.797
1594.6400, -58.796
1594.6600, -58.814
1594.6800, -58.812
1594.7000, -58.800
1594.7200, -58.825
1594.7400, -58.800
1594.7600, -58.823
1594.7800, -58.836
1594.8000, -58.837
1594.8200, -58.833
1594.8400, -58.829
1594.8600, -58.854
1594.8800, -58.851
1594.9000, -58.870
1594.9200, -58.852
1594.9400, -58.863
1594.9600, -58.861
1594.9800, -58.856
1595.0000, -58.876
1595.0200, -58.885
1595.0400, -58.896
1595.0600, -58.892
1595.0800, -58.898
1595.1000, -58.889
1595.1200, -58.903
1595.1400, -58.907
1595.1600, -58.898
1595.1800, -58.916
1595.2000, -58.915
1595.2200, -58.917
1595.2400, -58.933
1595.2600, -58.961
1595.2800, -58.931
1595.3000, -58.931
1595.3200, -58.941
1595.3400, -58.924
1595.3600, -58.934
1595.3800, -58.956
1595.4000, -58.982
1595.4200, -58.969
1595.4400, -58.949
1595.4600, -58.976
1595.4800, -58.973
1595.5000, -58.998
1595.5200, -58.990
1595.5400, -58.993
1595.5600, -58.965
1595.5800, -59.022
1595.6000, -58.988
1595.6200, -59.021
1595.6400, -58.997
1595.6600, -59.014
1595.6800, -59.022
1595.7000, -59.020
1595.7200, -59.017
1595.7400, -59.025
1595.7600, -59.044
1595.7800, -59.026
1595.8000, -59.039
1595.8200, -59.034
1595.8400, -59.061
1595.8600, -59.075
1595.8800, -59.056
1595.9000, -59.047
1595.9200, -59.076
1595.9400, -59.059
1595.9600, -59.053
1595.9800, -59.086
1596.0000, -59.093
1596.0200, -59.105
1596.0400, -59.103
1596.0600, -59.115
1596.0800, -59.097
1596.1000, -59.126
1596.1200, -59.124
1596.1400, -59.120
1596.1600, -59.109
1596.1800, -59.145
1596.2000, -59.102
1596.2200, -59.146
1596.2400, -59.147
1596.2600, -59.151
1596.2800, -59.149
1596.3000, -59.158
1596.3200, -59.160
1596.3400, -59.155
1596.3600, -59.178
1596.3800, -59.174
1596.4000, -59.169
1596.4200, -59.167
1596.4400, -59.176
1596.4600, -59.207
1596.4800, -59.170
1596.5000, -59.189
1596.5200, -59.191
1596.5400, -59.218
1596.5600, -59.192
1596.5800, -59.219
1596.6000, -59.229
1596.6200, -59.224
1596.6400, -59.218
1596.6600, -59.230
1596.6800, -59.229
1596.7000, -59.239
1596.7200, -59.248
1596.7400, -59.239
1596.7600, -59.235
1596.7800, -59.226
1596.8000, -59.258
1596.8200, -59.276
1596.8400, -59.248
1596.8600, -59.266
1596.8800, -59.266
1596.9000, -59.262
1596.9200, -59.269
1596.9400, -59.296
1596.9600, -59.297
1596.9800, -59.301
1597.0000, -59.288
1597.0200, -59.302
1597.0400, -59.293
1597.0600, -59.292
1597.0800, -59.316
1597.1000, -59.297
1597.1200, -59.331
1597.1400, -59.318
1597.1600, -59.323
1597.1800, -59.341
1597.2000, -59.333
1597.2200, -59.347
1597.2400, -59.331
1597.2600, -59.339
1597.2800, -59.360
1597.3000, -59.353
1597.3200, -59.364
1597.3400, -59.357
1597.3600, -59.370
1597.3800, -59.361
1597.4000, -59.377
1597.4200, -59.388
1597.4400, -59.386
1597.4600, -59.371
1597.4800, -59.390
1597.5000, -59.378
1597.5200, -59.396
1597.5400, -59.399
1597.5600, -59.399
1597.5800, -59.432
1597.6000, -59.418
1597.6200, -59.403
1597.6400, -59.413
1597.6600, -59.436
1597.6800, -59.440
1597.7000, -59.444
1597.7200, -59.451
1597.7400, -59.440
1597.7600, -59.435
1597.7800, -59.438
1597.8000, -59.471
1597.8200, -59.449
1597.8400, -59.483
1597.8600, -59.451
1597.8800, -59.482
1597.9000, -59.468
1597.9200, -59.493
1597.9400, -59.485
1597.9600, -59.486
1597.9800, -59.490
1598.0000, -59.495
1598.0200, -59.501
1598.0400, -59.498
1598.0600, -59.510
1598.0800, -59.506
1598.1000, -59.511
1598.1200, -59.525
1598.1400, -59.527
1598.1600, -59.526
1598.1800, -59.522
1598.2000, -59.532
1598.2200, -59.542
1598.2400, -59.536
1598.2600, -59.548
1598.2800, -59.562
1598.3000, -59.573
1598.3200, -59.565
1598.3400, -59.556
1598.3600, -59.583
1598.3800, -59.581
1598.4000, -59.563
1598.4200, -59.574
1598.4400, -59.590
1598.4600, -59.589
1598.4800, -59.588
1598.5000, -59.626
1598.5200, -59.611
1598.5400, -59.609
1598.5600, -59.608
1598.5800, -59.611
1598.6000, -59.640
1598.6200, -59.606
1598.6400, -59.642
1598.6600, -59.653
1598.6800, -59.635
1598.7000, -59.641
1598.7200, -59.651
1598.7400, -59.654
1598.7600, -59.637
1598.7800, -59.648
1598.8000, -59.673
1598.8200, -59.685
1598.8400, -59.671
1598.8600, -59.658
1598.8800, -59.659
1598.9000, -59.690
1598.9200, -59.693
1598.9400, -59.677
1598.9600, -59.692
1598.9800, -59.701
1599.0000, -59.723
1599.0200, -59.693
1599.0400, -59.693
1599.0600, -59.730
1599.0800, -59.725
1599.1000, -59.724
1599.1200, -59.726
1599.1400, -59.715
1599.1600, -59.744
1599.1800, -59.745
1599.2000, -59.738
1599.2200, -59.739
1599.2400, -59.751
1599.2600, -59.771
1599.2800, -59.768
1599.3000, -59.778
1599.3200, -59.765
1599.3400, -59.746
1599.3600, -59.789
1599.3800, -59.787
1599.4000, -59.775
1599.4200, -59.805
1599.4400, -59.811
1599.4600, -59.799
1599.4800, -59.788
1599.5000, -59.831
1599.5200, -59.795
1599.5400, -59.785
1599.5600, -59.821
1599.5800, -59.854
1599.6000, -59.855
1599.6200, -59.803
1599.6400, -59.815
1599.6600, -59.839
1599.6800, -59.851
1599.7000, -59.843
1599.7200, -59.868
1599.7400, -59.850
1599.7600, -59.877
1599.7800, -59.864
1599.8000, -59.879
1599.8200, -59.886
1599.8400, -59.901
1599.8600, -59.862
1599.8800, -59.916
1599.9000, -59.880
1599.9200, -59.897
1599.9400, -59.917
1599.9600, -59.891
1599.9800, -59.921
1600.0000, -59.924
